time,linear_acceleration_x,linear_acceleration_y,linear_acceleration_z,angular_velocity_x,angular_velocity_y,angular_velocity_z
1696685892.3365068,-0.1317233499791473,0.0815310472343117,9.792690286934375,0.0013692209031432867,0.0016128089046105742,0.00203394191339612
1696685892.3415027,-0.07965822546742857,0.0133077806327492,9.732546091377735,0.0013692209031432867,0.0037433379329741,-9.658699855208397e-05
1696685892.3464975,-0.13621172278188168,-0.027087574591860175,9.758578653633593,0.004565014503896236,0.0005475444486364722,-0.002227115910500288
1696685892.3515065,-0.1254396280553192,-0.023496876349672676,9.777429819405079,0.0034997498150914907,-0.0005177200073376298,0.00203394191339612
1696685892.3565047,-0.11376985876820982,-0.0082364088203758,9.767555399239063,0.0013692209031432867,-0.0015829844633117318,-9.658699855208397e-05
1696685892.361503,-0.0994070657994598,-0.0297805982735008,9.72536469489336,0.0024344853591173887,-0.0005177200073376298,0.00203394191339612
1696685892.366506,-0.08145357458852232,-0.09172014295123518,9.766657724678517,0.0024344853591173887,-0.0005177200073376298,-0.002227115910500288
1696685892.371503,-0.052727988651022316,0.05370313585735857,9.848346694111823,0.0013692209031432867,0.002678073476999998,-9.658699855208397e-05
1696685892.376498,-0.07696520178578793,-0.01362245618365705,9.77114609748125,-0.0028918369207531214,0.0005475444486364722,0.000968677457422018
1696685892.381501,-0.07516985266469418,-0.1698178297188133,9.703820505440234,-0.0007613079505972564,0.0016128089046105742,-0.002227115910500288
1696685892.3865085,-0.08324892370961606,0.0025356859061866997,9.71100190192461,0.0024344853591173887,0.0016128089046105742,0.004164470825344324
1696685892.3915005,-0.07786287634633482,0.08961011827923357,9.749601908028126,0.0024344853591173887,-0.0005177200073376298,0.005229735281318426
1696685892.3965049,-0.12992800085805356,-0.06748292981646954,9.710104227364063,-0.0018265724647790194,0.0005475444486364722,0.003099206369370222
1696685892.4015007,-0.057216361453756685,-0.04952943860553205,9.748704233467578,-0.00395710114389658,0.002678073476999998,0.00203394191339612
1696685892.4065144,-0.057216361453756685,0.06806592882610857,9.76845307379961,0.0013692209031432867,0.0037433379329741,0.00203394191339612
1696685892.41152,-0.1290303262975067,-0.04593874036334455,9.781020517647265,0.0024344853591173887,0.0016128089046105742,-0.002227115910500288
1696685892.4164748,-0.09222566931508482,-0.01721315442584455,9.800769357979297,0.0024344853591173887,0.0016128089046105742,-9.658699855208397e-05
1696685892.4215398,-0.06350008337758481,0.0743496507499367,9.744215860664845,-0.0018265724647790194,0.0037433379329741,0.003099206369370222
1696685892.4264748,-0.11646288244985044,-0.01362245618365705,9.675992594063281,0.0003039565053768456,0.002678073476999998,-0.00329238036647439
1696685892.4315307,-0.09132799475453794,-0.10608293591998517,9.780122843086719,0.0013692209031432867,0.002678073476999998,0.000968677457422018
1696685892.4364781,-0.05631868689320981,-0.0656875806953758,9.812439711689949,0.0024344853591173887,0.002678073476999998,-9.658699855208397e-05
1696685892.4415357,-0.12364427893422544,0.0851217454764992,9.777429819405079,0.0034997498150914907,0.002678073476999998,-0.00329238036647439
1696685892.4464822,-0.1353140482213348,0.0528054612968117,9.740625162422656,-0.0028918369207531214,-0.0015829844633117318,-9.658699855208397e-05
1696685892.451532,-0.1254396280553192,-0.20303178845904768,9.781020517647265,-0.0007613079505972564,0.002678073476999998,-0.00329238036647439
1696685892.4564762,-0.08504427283070981,0.030363597283139823,9.787304239571094,0.009891336783766747,0.002678073476999998,-0.001161851454526186
1696685892.4615335,-0.14967684119008481,0.15424268663860857,9.748704233467578,-0.00395710114389658,0.0016128089046105742,-0.001161851454526186
1696685892.4664764,-0.14249544470570982,0.06896360338665544,9.737932138741016,0.0013692209031432867,-0.002648248802870512,-0.00329238036647439
1696685892.4715338,-0.03567217200063169,-0.1976457410957664,9.745113535225391,-0.006087630055844784,0.004808602388948202,-0.001161851454526186
1696685892.4764764,-0.24572801916860043,-0.05222246228717267,9.776532144844532,0.0034997498150914907,0.002678073476999998,0.003099206369370222
1696685892.4815352,-0.16224428503774105,0.057293834099546075,9.778327493965625,0.008826072327792645,-0.002648248802870512,0.000968677457422018
1696685892.4864738,-0.029388450076803563,-0.04593874036334455,9.738829813301564,-0.0007613079505972564,-0.0005177200073376298,-0.00329238036647439
1696685892.4915287,-0.015025657108053564,-0.16173875867389143,9.779225168526173,-0.0028918369207531214,-0.002648248802870512,-0.00329238036647439
1696685892.496476,-0.20443498938344418,-0.028882923712953923,9.805258315205574,0.0024344853591173887,0.002678073476999998,0.004164470825344324
1696685892.5015378,-0.01412798254750669,0.06896360338665544,9.869890883564949,-0.0007613079505972564,-0.0015829844633117318,0.000968677457422018
1696685892.506475,-0.03746752112172544,-0.04952943860553205,9.740625162422656,-0.00395710114389658,0.004808602388948202,-9.658699855208397e-05
1696685892.5115323,-0.13351869910024106,-0.050427113166078924,9.761271677315236,-0.0007613079505972564,0.002678073476999998,-0.002227115910500288
1696685892.5164816,-0.06798845618031919,0.024977549919858573,9.824109480977057,0.0003039565053768456,0.0005475444486364722,-0.002227115910500288
1696685892.5215242,-0.08414659827016294,0.10487058580853045,9.848346694111823,0.0003039565053768456,0.0016128089046105742,0.000968677457422018
1696685892.5264745,-0.13262102453969418,-0.027087574591860175,9.766657724678517,-0.0018265724647790194,0.002678073476999998,-0.002227115910500288
1696685892.531527,-0.10928148596547543,-0.027087574591860175,9.75409028083086,-0.005022365599870682,-0.0015829844633117318,-0.001161851454526186
1696685892.536477,-0.03836519568227231,0.0743496507499367,9.777429819405079,0.004565014503896236,-0.0005177200073376298,-0.004357644822448492
1696685892.541535,-0.08414659827016294,-0.0225992017891258,9.776532144844532,0.0034997498150914907,0.0037433379329741,-9.658699855208397e-05
1696685892.5464761,-0.12723497717641294,-0.0692782789375633,9.748704233467578,-0.00395710114389658,-0.0015829844633117318,-0.00329238036647439
1696685892.5515046,-0.06260240881703794,-0.0944131666328758,9.726262369453906,0.0024344853591173887,0.0016128089046105742,0.000968677457422018
1696685892.5565066,-0.027593100955709816,-0.12044572888873517,9.761271677315236,0.0024344853591173887,0.0016128089046105742,0.00203394191339612
1696685892.561503,-0.16403963415883482,-0.030678272834047674,9.801667032539845,0.0034997498150914907,0.0005475444486364722,0.000968677457422018
1696685892.5665028,-0.15955126135610043,0.03215894640423357,9.805258315205574,-0.0007613079505972564,0.0016128089046105742,-0.002227115910500288
1696685892.5715046,-0.015025657108053564,-0.0872317701485008,9.738829813301564,-0.007152894511818886,0.005873866844922304,-0.001161851454526186
1696685892.5765038,-0.21251406042836607,-0.1339108472969383,9.734341440498829,0.0013692209031432867,-0.0015829844633117318,-0.001161851454526186
1696685892.581505,-0.2071280130650848,0.05549848497845232,9.747806558907032,0.0034997498150914907,0.002678073476999998,-9.658699855208397e-05
1696685892.586509,-0.004253562381491065,0.0025356859061866997,9.728955393135548,0.0003039565053768456,0.0016128089046105742,0.000968677457422018
1696685892.5914998,-0.1604489359166473,-0.07556200086139142,9.674197244942189,0.0024344853591173887,0.002678073476999998,0.00203394191339612
1696685892.5965059,-0.20533266394399105,-0.12134340344928204,9.73703446418047,0.004565014503896236,-0.005844042170792818,0.004164470825344324
1696685892.601504,-0.06350008337758481,-0.26856203137896956,9.780122843086719,0.004565014503896236,0.0005475444486364722,0.015882380306720734
1696685892.6065078,-0.08055590002797544,-0.045041065802797674,9.885151351094246,0.0034997498150914907,-0.0015829844633117318,0.025469759479165077
1696685892.6115048,-0.1784024271275848,0.06806592882610857,9.938114150166511,-0.00395710114389658,0.002678073476999998,0.03931820020079613
1696685892.61651,-0.21251406042836607,-0.11505968152545393,9.99287229835987,-0.012479216791689396,0.012265453115105629,0.05529716610908508
1696685892.6215012,-0.1963559183385223,-0.1339108472969383,10.132011855244636,-0.01993606798350811,0.03783180192112923,0.06488454341888428
1696685892.6265047,-0.7403467202931643,-0.06478990613482892,10.081742079854012,-0.035915035754442215,0.055941298604011536,0.058492958545684814
1696685892.6315033,-0.7502211404591799,0.08063337267376482,9.756783304512501,-0.028458183631300926,0.045288652181625366,0.029730817303061485
1696685892.636502,-0.45219318635761735,0.2072054857108742,9.878867629170417,-0.04017609357833862,0.06126761808991432,-0.011814495548605919
1696685892.641503,-0.4934862161427736,0.07614499987103045,9.850142043232918,-0.04017609357833862,0.10281293839216232,-0.044837694615125656
1696685892.6465046,-0.38217457063496113,-0.043245716681703926,9.675094919502735,-0.05935085564851761,0.14435824751853943,-0.06507772207260132
1696685892.6515012,-0.33190479524433614,-0.06748292981646954,9.793587961494922,-0.06148138269782066,0.1731203943490982,-0.07146930694580078
1696685892.6565027,-0.397435038164258,-0.16353410779498517,9.842062972187996,-0.07426455616950989,0.20188254117965698,-0.08744827657938004
1696685892.6615074,-0.41269550569355484,-0.20392946301959455,9.792690286934375,-0.06361190974712372,0.21360044181346893,-0.09277459979057312
1696685892.666501,-0.14070009558461605,-0.2703573805000633,10.180486281514167,-0.06787297129631042,0.23064467310905457,-0.08531774580478668
1696685892.671502,0.053197609493508935,-0.3547388074547052,10.129318831562996,-0.06680770218372345,0.24981944262981415,-0.06294719129800797
1696685892.6765041,0.17348600060679017,-0.21470155774615704,10.21998396217823,-0.05828559026122093,0.2615373432636261,-0.0150102898478508
1696685892.6815152,0.5154999899119138,-0.016315479865297675,10.275639784932137,-0.03058871254324913,0.30095213651657104,0.029730817303061485
1696685892.6864767,0.5199883627146482,-0.054017811408266427,10.307956069111825,-0.028458183631300926,0.3595416843891144,0.04890557751059532
1696685892.6915324,0.7147837423533201,-0.1554550367500633,10.103286269307135,-0.0146097457036376,0.43943652510643005,0.07979825139045715
1696685892.6964793,1.096295430585742,0.13718686998821794,10.367202590107917,-0.00395710114389658,0.5502240061759949,0.10323406755924225
1696685892.701532,0.9320209860056639,-0.1482736402656883,10.167021163105964,0.0034997498150914907,0.6620767712593079,0.14584465324878693
1696685892.7064786,1.0361512350291013,0.13449384630657732,10.551225875020027,-0.006087630055844784,0.7771252989768982,0.18952049314975739
1696685892.7115307,1.0226861166208983,-0.17969224988482893,10.620346816182137,0.0013692209031432867,0.8921738862991333,0.22893528640270233
1696685892.7164834,0.8943186544626951,-0.1267294508125633,10.646379378437995,0.0066955434158444405,0.9997655749320984,0.2587626874446869
1696685892.7215393,0.9383047079294919,-0.10069688855670392,10.75140730202198,-0.0018265724647790194,1.105226755142212,0.29285115003585815
1696685892.726474,1.2937838339060546,-0.2595852857735008,10.695751479268074,-0.0028918369207531214,1.2202754020690918,0.3652891516685486
1696685892.7315307,0.8386628317087889,0.419056663736701,10.79180265724659,-0.029523449018597603,1.316149115562439,0.4206828773021698
1696685892.7364829,0.29916043908335266,-0.08633409558795392,10.389644454121589,-0.03058871254324913,1.4088271856307983,0.4654240012168884
1696685892.7415323,0.26774182946421204,-0.3628178784996271,9.910286238789558,-0.024197125807404518,1.510027289390564,0.5027082562446594
1696685892.746478,-0.2286722025182098,0.0384426683280617,10.181383956074715,-0.03698030114173889,1.604835867881775,0.5016430020332336
1696685892.7515306,-0.03028612463735044,-0.40052021004259586,9.80884901344776,-0.01993606798350811,1.716688632965088,0.4995124638080597
1696685892.7564778,-0.15506288855336606,-0.06030153333209455,10.071867659687996,-0.022066596895456314,1.8242802619934082,0.49205562472343445
1696685892.761535,-0.5302908731251955,0.0456240648124367,9.997360671162605,-0.024197125807404518,1.9116320610046387,0.4888598322868347
1696685892.766478,-0.6819978738576173,0.18027524889446794,10.058402541279792,-0.03378450497984886,1.9904615879058838,0.4579671621322632
1696685892.7715213,-1.0078537393361329,-0.22906435071490705,10.214597914814949,-0.022066596895456314,2.0522470474243164,0.43133553862571716
1696685892.776478,-1.252021219804883,-0.7039342115074396,9.68496933966875,0.03971874341368675,2.134272336959839,0.3791375756263733
1696685892.78153,-1.7816492105275392,-0.5594086072593927,9.620336771309375,0.10469987988471985,2.19392728805542,0.318417489528656
1696685892.7864807,-2.2035562539845706,-0.4274504468590021,9.761271677315236,0.17287679016590118,2.2407989501953125,0.27048060297966003
1696685892.7915378,-2.6111003583669663,-0.5118318555504083,8.762159891426563,0.2772727310657501,2.2812788486480713,0.2619584798812866
1696685892.7964752,-2.6111003583669663,-0.5118318555504083,8.762159891426563,0.40084341168403625,2.3015189170837402,0.25130581855773926
1696685892.8015285,-3.223314408659935,-0.708422584310174,8.235224924385548,0.5201529860496521,2.288735866546631,0.2395879328250885
1696685892.8064861,-3.3418074506521225,-0.7883156201988458,8.348331919014454,0.7055090069770813,2.2514514923095703,0.25982794165611267
1696685892.8115366,-3.553658646941185,-0.4705388257652521,8.93541108161211,0.9196271896362305,2.1811439990997314,0.3045690655708313
1696685892.8165042,-3.8355284589529037,-0.2515062147285789,9.460550699532032,1.1039179563522339,2.1214892864227295,0.355701744556427
1696685892.821507,-4.270900620818138,0.00792173326946795,10.040449050068855,1.2487939596176147,2.070356607437134,0.3961818218231201
1696685892.8265026,-4.8328448957204815,0.20271711290813982,10.496467726826667,1.359581470489502,2.0107016563415527,0.4260092079639435
1696685892.8315055,-5.363370561003685,0.010614756951108575,10.894137557148934,1.4618468284606934,1.9435899257659912,0.44092291593551636
1696685892.8365114,-5.664091538786888,0.0007403367850929498,11.341179488301277,1.5694385766983032,1.8818045854568481,0.4260092079639435
1696685892.841503,-5.779891557097435,0.368786888346076,11.659853957295418,1.6674429178237915,1.8189539909362793,0.39085549116134644
1696685892.8465083,-5.8229799360036845,0.7440148546546698,12.02969587624073,1.7217713594436646,1.7646255493164062,0.35783228278160095
1696685892.8515084,-6.083305558562278,0.9621497728675603,12.332212203145026,1.7356197834014893,1.7124274969100952,0.30137327313423157
1696685892.8565066,-6.416342820525169,1.1883637621253729,12.54675642311573,1.7239019870758057,1.6506421566009521,0.2502405643463135
1696685892.8615031,-6.6371707624197,1.2494056322425604,12.538677352070808,1.6962050199508667,1.5654211044311523,0.1937815546989441
1696685892.8665092,-6.713473100066185,1.2817219164222478,12.46327268898487,1.6717039346694946,1.465286135673523,0.1469099223613739
1696685892.8715024,-6.561766099333763,1.5779545214027166,12.63562620460987,1.6514639854431152,1.36089026927948,0.11708250641822815
1696685892.8765085,-6.307724198698997,2.0187127306312322,12.90582624733448,1.6088533401489258,1.2628859281539917,0.09577721357345581
1696685892.8815022,-6.282589311003685,2.2880150987952947,13.04676115334034,1.5289585590362549,1.1861869096755981,0.09471195191144943
1696685892.8865118,-6.53393818795681,2.5025594648718834,13.203854201436043,1.4107141494750977,1.1180099248886108,0.087255097925663
1696685892.8915064,-6.698212632536888,2.7332618269324302,13.748742659687995,1.267968773841858,1.0445066690444946,0.08938562870025635
1696685892.8965101,-6.853510331511497,2.8230292829871177,14.30440321266651,1.0826127529144287,0.9805908203125,0.08618983626365662
1696685892.9015043,-6.904677781462669,2.8670153364539144,14.831338179707526,0.8557113409042358,0.9443718791007996,0.07553718984127045
1696685892.9065106,-6.827477769255638,2.9379316267371176,15.174249861836433,0.607504665851593,0.9209360480308533,0.049970842897892
1696685892.9115016,-6.542017259001732,3.1605549177527426,15.229905684590339,0.34651491045951843,0.8847170472145081,0.02120870165526867
1696685892.9165084,-6.331063737273216,3.5734852156043053,15.395077803730965,0.08978617191314697,0.831453800201416,-0.002227115910500288
1696685892.9215171,-6.062659043669701,3.9864155134558676,15.61141737282276,-0.16481204330921173,0.7504937052726746,-0.027793463319540024
1696685892.9264755,-5.604845017790794,4.129145768582821,15.447142928242682,-0.42899763584136963,0.6460977792739868,-0.030989255756139755
1696685892.9315333,-5.276296128630638,3.962178300321102,15.13205915749073,-0.6612253189086914,0.5289186835289001,-0.001161851454526186
1696685892.9364748,-5.308612412810326,3.7287829145789146,14.889687026143074,-0.8476465940475464,0.3914996087551117,0.0361224040389061
1696685892.9415333,-5.432491502165794,3.5698945173621177,14.418407881855964,-0.9978488683700562,0.24875417351722717,0.07127613574266434
1696685892.946473,-5.404663590788841,3.415494492948055,14.007272933125495,-1.1171584129333496,0.08789923787117004,0.1192130371928215
1696685892.9515328,-5.4764775556325915,3.272764237821102,13.746947310566902,-1.2119669914245605,-0.07615149766206741,0.17247626185417175
1696685892.9564805,-5.348110093474388,3.1273409590125083,13.548561232686042,-1.3035796880722046,-0.2210274636745453,0.21934790909290314
1696685892.961537,-5.098556565642356,2.9334432539343833,13.313370497822762,-1.3813440799713135,-0.34353289008140564,0.2715458571910858
1696685892.9664812,-5.202686814665794,2.330205803140998,12.924677413105965,-1.4516514539718628,-0.4191666543483734,0.30776485800743103
1696685892.9715295,-5.407356614470482,1.9729313280433416,12.810672743916511,-1.5070452690124512,-0.4521898627281189,0.318417489528656
1696685892.9764736,-5.518668259978294,1.9495917894691228,12.701156447529792,-1.5304811000823975,-0.46284249424934387,0.28859010338783264
1696685892.9815378,-5.404663590788841,1.9495917894691228,12.483021529316902,-1.5368726253509521,-0.47242987155914307,0.23639214038848877
1696685892.9864764,-5.203584489226341,2.0214057543128727,12.341188948750496,-1.5358073711395264,-0.4564509093761444,0.1841941773891449
1696685892.9915333,-4.887603043913841,2.0007592394202947,12.312463362812995,-1.5315463542938232,-0.4298193156719208,0.1288004219532013
1696685892.996482,-4.634458817839622,1.7242754747718572,12.047649367451667,-1.5315463542938232,-0.37975186109542847,0.07553718984127045
1696685893.001528,-4.725123948454857,1.367000999674201,11.922872603535652,-1.4931968450546265,-0.327553927898407,0.03931820020079613
1696685893.006476,-5.066240281462669,1.1928521349281072,12.014435408711433,-1.4250198602676392,-0.28707385063171387,0.00736026419326663
1696685893.0115328,-5.223333329558372,1.2987777330726384,12.042263320088386,-1.3451250791549683,-0.2721601724624634,-0.005422909278422594
1696685893.0164719,-5.1227937787771225,1.4056010057777166,12.02969587624073,-1.2545775175094604,-0.2955959737300873,0.008425528183579445
1696685893.021536,-4.822970475554466,1.3849544908851386,12.132030776143074,-1.1789437532424927,-0.32861918210983276,0.04570978507399559
1696685893.026483,-4.513272752165794,1.346354484781623,12.184095900654793,-1.1171584129333496,-0.35631605982780457,0.10003827512264252
1696685893.0315382,-4.665877427458763,1.0617916490882635,12.062012160420418,-1.0670909881591797,-0.37122976779937744,0.170345738530159
1696685893.0364747,-5.283477525115013,0.648861351236701,12.050342391133308,-1.0170235633850098,-0.3818823993206024,0.21508684754371643
1696685893.0415385,-5.727826432585716,0.4298287584632635,11.96057493507862,-0.9477814435958862,-0.40425294637680054,0.25130581855773926
1696685893.0464752,-5.48276127755642,0.2915868944022804,11.680500472187996,-0.8689518570899963,-0.4330151081085205,0.2853943109512329
1696685893.0515358,-4.959417008757591,0.19822874010540545,11.329509719014167,-0.7901223301887512,-0.44473299384117126,0.30669960379600525
1696685893.0564818,-4.2655145734548565,0.17937757433392107,10.88067243874073,-0.7112927436828613,-0.41064453125,0.31202590465545654
1696685893.0615373,-3.904649400115013,0.23413572252728043,10.46684446632862,-0.6388547420501709,-0.3456633985042572,0.31202590465545654
1696685893.0664964,-3.9297842878103255,0.10756360949017107,10.451583998799324,-0.5493725538253784,-0.25937697291374207,0.31202590465545654
1696685893.0715005,-3.754737748503685,0.15783338488079607,10.571872389912604,-0.448172390460968,-0.17735162377357483,0.30669960379600525
1696685893.076508,-3.4360632795095443,0.4729171373695135,10.894137557148934,-0.32673221826553345,-0.1091746911406517,0.3141564428806305
1696685893.0815015,-3.4118260663747786,0.7296520616859198,11.09611433327198,-0.21914052963256836,-0.061237793415784836,0.3045690655708313
1696685893.0865078,-3.2681981366872788,0.8364753343909979,11.044946883320808,-0.11474461108446121,-0.03780197724699974,0.2864595651626587
1696685893.0915024,-3.2278027814626693,0.864303245767951,11.026095717549325,-0.01993606798350811,-0.03886724263429642,0.2896553575992584
1696685893.0965133,-3.538398179411888,0.8795637132972478,10.991984084248543,0.05250191688537598,-0.0676293820142746,0.30669960379600525
1696685893.1015074,-4.000700578093529,0.7871032335609197,10.890546858906745,0.09830828756093979,-0.11982733756303787,0.32587435841560364
1696685893.106509,-4.58329136788845,0.7081078722327947,11.214607375264167,0.11961358040571213,-0.18054741621017456,0.34931015968322754
1696685893.1115048,-5.058161210417747,0.3966147997230291,11.149077132344246,0.12493989616632462,-0.24446327984333038,0.3706154525279999
1696685893.116508,-5.465705460906029,-0.05940385877154768,11.114067824482918,0.13772307336330414,-0.30624863505363464,0.3684849441051483
1696685893.1215038,-5.685635728240013,0.03215894640423357,11.43812834084034,0.11215672641992569,-0.34246760606765747,0.33546173572540283
1696685893.1265037,-5.848114823698998,0.06088453234173357,11.330407393574715,0.07274194061756134,-0.37975186109542847,0.2896553575992584
1696685893.1315043,-5.970198563933372,0.19553571642376483,11.243332961201668,0.008826072327792645,-0.4053182303905487,0.23426160216331482
1696685893.1365113,-5.820286912322044,0.012410106072202325,10.991086409687995,-0.04869820922613144,-0.4298193156719208,0.17886784672737122
1696685893.1415074,-5.201789140105247,-0.02439455091021955,11.147281783223152,-0.11367934197187424,-0.4532551169395447,0.12240882962942123
1696685893.1464984,-5.05457051217556,-0.18507829724811017,11.257695754170417,-0.16268151998519897,-0.4426024854183197,0.03931820020079613
1696685893.1515052,-5.170370530486107,-0.09620851575396955,11.094318984150886,-0.1839868128299713,-0.4468635320663452,-0.06507772207260132
1696685893.1565127,-4.928896073698997,0.30505201281048355,11.289114363789558,-0.18185627460479736,-0.5171710252761841,-0.1268630474805832
1696685893.1615205,-4.61201695382595,1.0483265306800604,11.941723769307137,-0.21061842143535614,-0.613044798374176,-0.16521257162094116
1696685893.1664758,-4.085081986784935,0.885847435221076,11.465058577656746,-0.2489679455757141,-0.7142449617385864,-0.2195410579442978
1696685893.1715298,-3.8059051984548566,0.684768333658576,10.991086409687995,-0.2649468779563904,-0.8026618957519531,-0.2514989972114563
1696685893.1764793,-3.949533128142357,0.5860241319984197,10.821425917744635,-0.2500331997871399,-0.9241020679473877,-0.28239166736602783
1696685893.181538,-4.076105241179466,0.6479636766761541,10.618551467061042,-0.24151109158992767,-1.0498032569885254,-0.2802611291408539
1696685893.1864855,-4.267309922575951,0.7529916002601384,10.649970076680184,-0.25749003887176514,-1.175504446029663,-0.27706533670425415
1696685893.191533,-4.382212266325951,1.094107933267951,10.972235243916511,-0.309688001871109,-1.2894877195358276,-0.2610863745212555
1696685893.1964781,-4.371440171599388,1.1695125963538884,10.94350965797901,-0.3895828425884247,-1.3928184509277344,-0.23978108167648315
1696685893.201535,-4.3929843610525126,0.9495823290199041,10.66523054420948,-0.4726734757423401,-1.481235384941101,-0.22912845015525818
1696685893.206472,-4.472877396941185,0.6551450731605292,10.614960768818856,-0.5493725538253784,-1.5643260478973389,-0.21528001129627228
1696685893.2115285,-4.492626237273216,0.5303683092445135,10.562895644307137,-0.6005052328109741,-1.6442208290100098,-0.1961052417755127
1696685893.216458,-4.417221574187279,0.6183404161781072,10.32052351295948,-0.6495074033737183,-1.7230504751205444,-0.16521257162094116
1696685893.221532,-4.420812272429466,0.5932055284827947,10.020700209736823,-0.6931832432746887,-1.7816399335861206,-0.154559925198555
1696685893.2264712,-4.543793687224388,0.44598690055310725,9.623927469551562,-0.7240759134292603,-1.8263810873031616,-0.154559925198555
1696685893.2315412,-4.685626267790794,0.1605264085624367,9.174192514717578,-0.7123579978942871,-1.8700568675994873,-0.1630820482969284
1696685893.2364764,-4.6712634748220445,-0.26497133313678206,8.579931955635548,-0.6516379117965698,-1.8998843431472778,-0.1684083640575409
1696685893.241529,-4.659593705534935,-0.457073707357049,8.15982026129961,-0.5653514862060547,-1.9030801057815552,-0.19823578000068665
1696685893.2464776,-4.387598313689232,-0.5001620862632989,7.756764383614063,-0.458825021982193,-1.8839054107666016,-0.2333894968032837
1696685893.2515287,-4.2251192182302475,-0.5252969739586115,7.587103891670703,-0.3480375111103058,-1.8444905281066895,-0.2696084976196289
1696685893.2564812,-4.297830857634544,-0.5235016248375177,7.640964365303516,-0.23192371428012848,-1.7933578491210938,-0.2962401211261749
1696685893.2615328,-3.631756333708763,-0.5414551160484552,7.773820200264454,-0.12220145761966705,-1.7145283222198486,-0.32393696904182434
1696685893.2664785,-2.9656818097829816,-0.44001789070665837,8.061076059639454,-0.01674027554690838,-1.605871319770813,-0.3441770076751709
1696685893.2715328,-3.0689143842458724,-0.22188295423053203,8.273824930489063,0.07806826382875443,-1.5131933689117432,-0.3612212538719177
1696685893.2764785,-3.3633516401052472,0.0887124437186867,8.742411051094532,0.07806826382875443,-1.5131933689117432,-0.3612212538719177
1696685893.2775247,-3.2403702253103255,0.22964734972454606,9.009020395576954,0.1494409739971161,-1.4631258249282837,-0.395309716463089
1696685893.2815337,-3.2403702253103255,0.22964734972454606,9.009020395576954,0.20270420610904694,-1.44395112991333,-0.4187455177307129
1696685893.2864802,-3.1407283490896223,0.11564268053509294,8.84923432379961,0.20270420610904694,-1.44395112991333,-0.4187455177307129
1696685893.2875166,-3.2071562665700912,0.059986857781186696,9.505434427559376,0.27088114619255066,-1.4609953165054321,-0.4379202723503113
1696685893.2915041,-3.2071562665700912,0.059986857781186696,9.505434427559376,0.31775277853012085,-1.518519639968872,-0.4507034718990326
1696685893.2965052,-3.5913609784841536,0.34454967521131036,9.98748625099659,0.34012332558631897,-1.6239808797836304,-0.48159611225128174
1696685893.301505,-3.5231377118825913,0.1928426927421242,9.026973886787891,0.3848644495010376,-1.7645957469940186,-0.4933140277862549
1696685893.3065093,-3.5482725995779036,0.34454967521131036,8.986578531563282,0.3987128734588623,-1.9318422079086304,-0.49544456601142883
1696685893.3115067,-3.552760972380638,0.07524732531048357,8.920150614082813,0.4253444969654083,-2.105480194091797,-0.4826613962650299
1696685893.3165088,-3.202667893767357,-0.15186433850787578,8.25766678839922,0.4828687608242035,-2.264204740524292,-0.45709505677223206
1696685893.3215024,-2.784351548552513,-0.3547388074547052,7.827680673897266,0.4828687608242035,-2.264204740524292,-0.45709505677223206
1696685893.3225026,-2.5383887189626693,-0.1509666639473289,7.675075998604298,0.54571932554245,-2.3792531490325928,-0.4262023866176605
1696685893.327488,-2.3884772134572265,-0.05222246228717267,7.814215555489063,0.5798078179359436,-2.4538216590881348,-0.4123539328575134
1696685893.332495,-2.428872568681836,0.10217756212688982,7.960536508858204,0.5936562418937683,-2.513476610183716,-0.3899833858013153
1696685893.3374865,-2.610202683806419,-0.05222246228717267,7.485666666328907,0.577677309513092,-2.5486302375793457,-0.38785284757614136
1696685893.3424964,-2.663165482878685,-0.22637132703326643,7.0493968299031255,0.5585024952888489,-2.5795228481292725,-0.4134191870689392
1696685893.3474853,-2.251133005693555,-0.8269156263023615,6.77829911261797,0.5606330633163452,-2.600828170776367,-0.4357897639274597
1696685893.3524969,-1.6003189492970704,-0.09172014295123518,6.598764200508595,0.6181573271751404,-2.586979866027832,-0.4538992643356323
1696685893.3574834,-1.1703328347951174,0.3580147936195135,6.550289774239063,0.6682247519493103,-2.4953670501708984,-0.517815113067627
1696685893.3625011,-1.3004956460744141,0.907391624674201,6.682247934639454,0.7289448380470276,-2.3856449127197266,-0.5274025201797485
1696685893.367489,-1.7053468728810548,1.2242707445472478,6.500019998848438,0.7992522716522217,-2.2972278594970703,-0.5039666891098022
1696685893.3724964,-1.8094771219044923,0.7799218370765447,5.910247812569141,0.8418628573417664,-2.249290943145752,-0.48585718870162964
1696685893.3774834,-1.7134259439259767,0.397512474283576,5.457819834053517,0.8897997736930847,-2.23970365524292,-0.48159611225128174
1696685893.382494,-1.402830545976758,0.22067060411907732,5.493726816475391,0.9260187745094299,-2.230116128921509,-0.49970561265945435
1696685893.387483,-1.0572258401662111,0.24401014269329607,5.333940744698047,0.9430630207061768,-2.214137315750122,-0.517815113067627
1696685893.3925052,-0.8749979043751954,0.5178008653968572,5.309703531563282,0.9526503682136536,-2.208810806274414,-0.5274025201797485
1696685893.3974853,-0.7771513772755861,1.130014915689826,5.3985733130574225,0.9462587833404541,-2.20987606048584,-0.48905298113822937
1696685893.4024732,-0.34447223909199237,1.7601824571937321,5.658898935616016,0.8951261043548584,-2.214137315750122,-0.4453771412372589
1696685893.4075196,0.12321622521616518,1.740433616861701,5.419219827950001,0.8109701871871948,-2.170461416244507,-0.4134191870689392
1696685893.4124675,0.528965108320117,1.4953684618324041,4.851889797896146,0.7438585162162781,-2.1022844314575195,-0.38785284757614136
1696685893.4175148,0.9643372701853513,1.503447532877326,4.726215359419584,0.698052167892456,-2.0181286334991455,-0.35056859254837036
1696685893.4224694,1.3000675558298826,1.587828941568732,4.730703732222318,0.6671594977378845,-1.9147980213165283,-0.3122190833091736
1696685893.4275146,1.7345420431345702,2.0770615770667793,4.773792111128569,0.6352015733718872,-1.796553611755371,-0.23978108167648315
1696685893.4324672,2.0262862753123043,2.356238365396857,4.6499130217730995,0.5808730721473694,-1.6655261516571045,-0.154559925198555
1696685893.437515,2.139393269941211,2.2916057970374824,4.540396725386381,0.5105656385421753,-1.5153238773345947,-0.05762086808681488
1696685893.4424703,2.2130025839060545,2.112968559488654,4.217233883589506,0.45623716711997986,-1.3459467887878418,0.03825293481349945
1696685893.447513,2.3763793539255857,1.9109917833656072,3.943443142622709,0.43706241250038147,-1.1787002086639404,0.14797517657279968
1696685893.452467,2.5496306902170183,1.7862150194495916,3.6822198455035684,0.4498455822467804,-1.026367425918579,0.2523711025714874
1696685893.4575162,2.607081862092018,1.8876522447913884,3.8402105681598186,0.4860645830631256,-0.872969388961792,0.3546364903450012
1696685893.4624693,2.6824865251779557,2.0914243700355293,4.08976409599185,0.4860645830631256,-0.7515292167663574,0.4398576617240906
1696685893.4675167,2.7435283952951433,1.855335960611701,4.091559445112943,0.46582454442977905,-0.6428722143173218,0.5144261717796326
1696685893.4724689,2.714802809357643,1.3050614549964665,3.9281826750934123,0.4487802982330322,-0.5416721105575562,0.5698199272155762
1696685893.4775145,2.5801516252756116,1.1030846788734197,3.957805935591459,0.4541066288948059,-0.44579827785491943,0.6060389280319214
1696685893.4824708,2.5900260454416273,1.042940483316779,4.100536190718413,0.46475929021835327,-0.36590343713760376,0.6188220977783203
1696685893.4875145,2.6627376848459243,1.0276800157874821,4.271094357222318,0.46156349778175354,-0.28387805819511414,0.5975167751312256
1696685893.49247,2.651965590119362,1.2260660936683416,4.5807920806109905,0.43919292092323303,-0.1975916475057602,0.566624104976654
1696685893.4975111,2.680691176056862,1.2987777330726384,4.588871151655912,0.3848644495010376,-0.11663154512643814,0.5261440873146057
1696685893.5024703,2.700440016388893,1.1174474718421696,4.5574525420367715,0.3433191180229187,-0.0441935658454895,0.4888598322868347
1696685893.507523,2.765970259308815,0.8400660326331854,4.710954891890287,0.3102959394454956,0.02291809767484665,0.44198817014694214
1696685893.5124717,2.8422725969552993,0.9424009325355291,4.988336038887501,0.2783379852771759,0.07831185311079025,0.3887249529361725
1696685893.5175118,2.78751444876194,1.123731193765998,5.209163980782032,0.23466213047504425,0.10707399994134903,0.345049113035202
1696685893.5224702,2.9311423784494397,1.0483265306800604,5.40216401129961,0.1909862905740738,0.11666137725114822,0.3003080189228058
1696685893.5275137,3.109779615998268,1.122833519205451,5.461410532295703,0.14091886579990387,0.09855187684297562,0.28006798028945923
1696685893.5324688,3.305472670197487,1.1264242174476384,5.364461679756642,0.11002619564533234,0.06446341425180435,0.2768721878528595
1696685893.5375154,3.4535889726877214,0.9729218675941229,5.176847696602344,0.07806826382875443,0.0346360057592392,0.281133234500885
1696685893.5424948,3.447305250763893,0.9684334947913885,5.1086244300007815,0.07061140984296799,0.0016128089046105742,0.29391640424728394
1696685893.5474873,3.4535889726877214,1.1129590990394354,5.142736063301563,0.07061140984296799,-0.02395353838801384,0.31628698110580444
1696685893.5524995,3.4733378130197523,1.2386335375159978,5.0915686133503915,0.06102403253316879,-0.039932508021593094,0.3407880663871765
1696685893.5574868,3.4060122209787367,1.1811823656409979,4.97128022223711,0.04717559367418289,-0.04525882750749588,0.3546364903450012
1696685893.5624979,3.2444308000802993,1.179387016519904,4.9524290564656255,0.03332715481519699,-0.0441935658454895,0.36209335923194885
1696685893.5674794,3.4356354814767838,1.007931175455451,4.7657130400836465,0.029066096991300583,-0.04525882750749588,0.3652891516685486
1696685893.5724983,3.6295331865549088,0.9693311693519353,4.483843228071928,0.035457685589790344,-0.021823009476065636,0.37274599075317383
1696685893.5774891,3.503858748078346,1.1605358507484198,4.457810665816068,0.038653478026390076,0.013330717571079731,0.3833986222743988
1696685893.5824997,3.432942457795143,1.2188846971839666,4.377019955366849,0.028000833466649055,0.04422338679432869,0.3887249529361725
1696685893.587484,3.3629238420724867,1.0546102526038885,4.226210629194974,0.023739775642752647,0.08789923787117004,0.4057691991329193
1696685893.5924978,3.1851842790842055,0.7727404405921697,4.228005978316069,0.021609246730804443,0.12837928533554077,0.4206828773021698
1696685893.597486,3.1546633440256118,0.5258799364417791,3.993712918013334,0.032261889427900314,0.16992460191249847,0.419617623090744
1696685893.602494,3.2219889360666274,0.45047527335584164,3.772884976118803,0.059958767145872116,0.22105729579925537,0.4206828773021698
1696685893.607492,3.2632819658517835,0.41367061637341973,3.8087919585406778,0.08552511781454086,0.2934952676296234,0.419617623090744
1696685893.6124969,3.3727982622385024,0.48817760489881035,3.8895826689898967,0.10896093398332596,0.377651184797287,0.42281341552734375
1696685893.6174874,3.4805192095041275,0.41815898917615413,3.728898922652006,0.1302662193775177,0.4841776192188263,0.4377271234989166
1696685893.622496,3.4868029314279556,0.18296827257610856,3.780964047163725,0.16968099772930145,0.6120093464851379,0.45051029324531555
1696685893.6274843,3.392547102570534,0.10935895861126482,3.8680384795367715,0.20803052186965942,0.7547547817230225,0.4664892554283142
1696685893.6325016,3.210319166779518,0.06267988146282732,3.949726864546537,0.2559674382209778,0.9049570560455322,0.4803377091884613
1696685893.6374872,3.1070865923166275,-0.01362245618365705,3.958703610152006,0.3049696087837219,1.0434414148330688,0.49205562472343445
1696685893.642476,3.065793562531471,-0.003748036017641425,3.938057095259428,0.3561022877693176,1.1712732315063477,0.5090998411178589
1696685893.6475155,3.152867994904518,0.0707589525077492,3.911126858443022,0.3997781574726105,1.2895175218582153,0.5325356721878052
1696685893.6524732,3.0918261247873304,0.13000547350384295,3.9479315154254437,0.4541066288948059,1.390717625617981,0.5698199272155762
1696685893.657516,2.888951674103737,0.18027524889446794,3.9039454619586467,0.49458667635917664,1.4738082885742188,0.5975167751312256
1696685893.66247,2.7255749040842057,0.22426130236126482,3.9892245452106,0.5265445709228516,1.5494420528411865,0.6262789368629456
1696685893.667516,2.484998121857643,0.19014966906048356,3.9263873259723185,0.5574372410774231,1.6133579015731812,0.6497147679328918
1696685893.6724713,2.2067188619822264,0.1605264085624367,3.8375175444781777,0.5798078179359436,1.6719474792480469,0.6720852851867676
1696685893.677512,1.9535746359080075,0.22426130236126482,3.964089657515287,0.6085699796676636,1.7390592098236084,0.6752811074256897
1696685893.6824749,1.7318490194529295,0.31402874015271665,3.9272850005328652,0.614961564540863,1.802975058555603,0.6646284461021423
1696685893.6875172,1.563086202070117,0.47471248649060727,3.8904803435504434,0.6224184036254883,1.8764783143997192,0.6518452763557434
1696685893.692469,1.4221512960642575,0.47112178824841977,3.964987332075834,0.6213531494140625,1.9595688581466675,0.6262789368629456
1696685893.6975138,1.282114064618945,0.5079264452308416,3.994610592573881,0.6298752427101135,2.039463758468628,0.6113652586936951
1696685893.7024717,1.1375884603708981,0.577047386392951,4.004485012739897,0.6479847431182861,2.1214892864227295,0.5996473431587219
1696685893.7075193,1.0873186849802732,0.43521480582654476,4.095150143355131,0.665028989315033,2.212036609649658,0.5879294276237488
1696685893.7124705,0.9616442465037107,0.490870628580451,4.32226180717349,0.6842037439346313,2.303649425506592,0.5804725885391235
1696685893.7175117,0.7408163046091795,0.6380892565101385,4.510773464888334,0.6916605830192566,2.3803484439849854,0.5836683511734009
1696685893.7224722,0.5621790670603514,0.5438334276527166,4.655299069136381,0.7065742611885071,2.4431991577148438,0.5879294276237488
1696685893.727517,0.36648601286113264,0.4055915453284979,4.780075833052397,0.7087048292160034,2.507114887237549,0.5921904444694519
1696685893.732471,0.0792301717493683,0.46034969352185723,5.056559305489063,0.7182921767234802,2.546529769897461,0.5847336053848267
1696685893.7375152,-0.09850939123891293,0.41097759269177914,5.421015177071094,0.7140311598777771,2.581683397293091,0.586864173412323
1696685893.7424715,-0.10748613684438169,0.2844054979179054,5.657103586494922,0.7044437527656555,2.6168372631073,0.5762115120887756
1696685893.7475135,-1.0949281717091799,0.5330613329261541,5.9937315467,0.6628984212875366,2.610445737838745,0.5453188419342041
1696685893.752467,-1.7538212991505862,0.404693870767951,6.104145517647266,0.6170920729637146,2.587009906768799,0.5016430020332336
1696685893.757516,-2.233179514482617,0.16142408312298356,6.162494364082813,0.5712857246398926,2.5529212951660156,0.43133553862571716
1696685893.7624676,-2.6514957135915758,0.07704267443157732,6.351903696358204,0.5318709015846252,2.5039191246032715,0.347179651260376
1696685893.7675164,-2.869630631804466,0.0779403489921242,6.5395176795125005,0.4967172145843506,2.450655937194824,0.2672848105430603
1696685893.7724717,-3.1452167218923566,0.29068921984173357,6.825875864326954,0.43706241250038147,2.3910012245178223,0.1884552389383316
1696685893.7775161,-3.392077226042747,0.332879905924201,7.163401499092578,0.37421178817749023,2.3153674602508545,0.11601724475622177
1696685893.7824712,-3.568021439909935,0.36429851554334164,7.490155039131642,0.3049696087837219,2.2397336959838867,0.04251399263739586
1696685893.7874894,-3.738579606413841,0.411875267252326,7.702006235420703,0.2410537153482437,2.1566429138183594,-0.02246714197099209
1696685893.7924986,-3.7664075177907943,0.2790194505546242,7.885131845772266,0.1856599748134613,2.074617624282837,-0.08318721503019333
1696685893.7974858,-3.769998216032982,0.2754287523124367,8.31781098395586,0.12493989616632462,1.9936573505401611,-0.12047147750854492
1696685893.8025036,-3.8148819440603257,0.411875267252326,8.65982499152422,0.04397980123758316,1.9126973152160645,-0.14710308611392975
1696685893.8074915,-3.8732307904958723,0.3346752550452948,8.8375645545125,-0.0412413589656353,1.8413245677947998,-0.1630820482969284
1696685893.812497,-4.041095933318138,0.23682874620892108,9.169704141914844,-0.13498464226722717,1.778473973274231,-0.1726694256067276
1696685893.8174841,-4.183826188445091,0.15873105944134294,9.44708558112383,-0.22766265273094177,1.713492751121521,-0.17799575626850128
1696685893.8225012,-4.252049455046653,-0.09710619031451642,9.733443765938281,-0.31181854009628296,1.646381139755249,-0.1684083640575409
1696685893.8274841,-4.331942490935326,-0.3906457898765802,9.951579268574715,-0.3853217661380768,1.5867263078689575,-0.16414731740951538
1696685893.8324943,-4.400165757536888,-0.4956737134605646,10.09341184914112,-0.45669451355934143,1.522810459136963,-0.1726694256067276
1696685893.8374865,-4.610221604704857,-0.5046504590660333,10.455174697041512,-0.5174146294593811,1.455698847770691,-0.19290944933891296
1696685893.8425028,-4.873240250945091,-0.6069853589683771,10.833993361592292,-0.5504378080368042,1.3747386932373047,-0.2323242425918579
1696685893.8474874,-5.2269240278005595,-0.6805946729332208,11.042253859639168,-0.5653514862060547,1.269277572631836,-0.2600211203098297
1696685893.8525,-5.372347306609154,-0.9705435559898614,11.132918990254401,-0.560025155544281,1.1446415185928345,-0.29091379046440125
1696685893.857487,-5.380426377654075,-1.2892180249840022,11.349258559346199,-0.5483072996139526,1.0221362113952637,-0.30902329087257385
1696685893.8624964,-5.568040360808372,-1.5827576062828301,11.527895796895027,-0.5216756463050842,0.9028265476226807,-0.32287171483039856
1696685893.8674889,-5.913645066618919,-1.7946088025718927,11.583551619648933,-0.4865218997001648,0.7867127060890198,-0.3250022530555725
1696685893.8725007,-6.207184647917748,-2.057627448812127,11.908509810566901,-0.44178080558776855,0.6567504405975342,-0.3154148757457733
1696685893.8774908,-6.287975358366966,-2.27217166878283,12.349268019795417,-0.39490917325019836,0.5257229208946228,-0.3111537992954254
1696685893.882495,-6.374152116179466,-2.416697273030877,12.527905257344246,-0.3693428039550781,0.39789119362831116,-0.29943591356277466
1696685893.8874831,-6.577924241423607,-2.706646009981632,12.66435179054737,-0.3384501338005066,0.27751630544662476,-0.294109582901001
1696685893.8924737,-6.765538224577903,-2.863739058077335,12.903133223652839,-0.3139490485191345,0.1773814558982849,-0.3303285837173462
1696685893.8975136,-6.945970811247825,-2.7551204362511634,13.187696059346198,-0.28518691658973694,0.07192026823759079,-0.3889181315898895
1696685893.9024725,-6.9064731305837626,-2.7614041581749915,13.478542616963386,-0.2638816237449646,-0.035671450197696686,-0.4538992643356323
1696685893.9075215,-6.772719621062278,-2.828729750216007,13.561128676533698,-0.2649468779563904,-0.13047997653484344,-0.5231414437294006
1696685893.9124691,-6.553687028288841,-2.8789995256066323,13.577286818623543,-0.2585552930831909,-0.22315798699855804,-0.6009057760238647
1696685893.9175208,-6.260147446990013,-2.9705623307824136,13.579979842305184,-0.25642478466033936,-0.29666125774383545,-0.6712132096290588
1696685893.92247,-6.086896256804466,-3.053148390352726,13.63832868874073,-0.2404458224773407,-0.3541855216026306,-0.7298027276992798
1696685893.9275122,-6.0608636945486065,-2.902339064180851,13.89147291481495,-0.23298896849155426,-0.40425294637680054,-0.7894575595855713
1696685893.9324687,-5.9450636762380595,-2.7919250932335853,14.152696211934089,-0.236184760928154,-0.44579827785491943,-0.8437860608100891
1696685893.9375138,-5.845421800017356,-2.9983902421593664,14.337617171406745,-0.25749003887176514,-0.4979962408542633,-0.893853485584259
1696685893.9424708,-5.6847380536794665,-3.203060041964054,14.702073042988777,-0.2873174548149109,-0.558716356754303,-0.9449861645698547
1696685893.947512,-5.506100816130638,-3.4364554277062416,14.878017256855964,-0.2969048321247101,-0.6258280277252197,-1.0067715644836426
1696685893.9524682,-5.539314774870872,-3.591753126680851,14.952524245381355,-0.32140591740608215,-0.6897438764572144,-1.064295768737793
1696685893.9575138,-5.486351975798606,-3.6213763871788975,15.080891707539559,-0.35016804933547974,-0.7738997340202332,-1.1420601606369019
1696685893.9624765,-5.3427240461111065,-3.6922926774621008,15.20387312233448,-0.37786492705345154,-0.8559251427650452,-1.237933874130249
1696685893.967515,-5.336440324187278,-3.713836866915226,15.07460798561573,-0.39597442746162415,-0.9432768225669861,-1.3359382152557373
1696685893.9724724,-5.208072862029075,-3.857464796602726,14.97137541115284,-0.3970396816730499,-1.0370200872421265,-1.444595217704773
1696685893.977513,-4.946849564909935,-3.914018293917179,14.993817275166512,-0.36721229553222656,-1.1392854452133179,-1.556447982788086
1696685893.9824677,-4.610221604704857,-3.642022902071476,14.89956144630909,-0.33099329471588135,-1.238355040550232,-1.6864103078842163
1696685893.9875143,-4.314886674284935,-3.331427504122257,14.825054457783699,-0.28412166237831116,-1.3331636190414429,-1.812111496925354
1696685893.9924736,-4.084184312224388,-3.1860042253136633,14.656291640400886,-0.22979317605495453,-1.4354289770126343,-1.9559221267700195
1696685893.9975176,-3.8014168256521224,-2.8601483598351476,14.496505568623542,-0.1712036281824112,-1.5302375555038452,-2.1007981300354004
1696685894.0024695,-3.3256493085622787,-2.544166914522648,14.303505538105965,-0.10089617222547531,-1.6271766424179077,-2.238217353820801
1696685894.007532,-2.813077134490013,-2.230878638997674,14.213738082051277,-0.025262391194701195,-1.7134630680084229,-2.376701593399048
1696685894.0124722,-2.234974863603711,-1.584552955403924,14.219124129414558,0.04824085906147957,-1.786966323852539,-2.5130555629730225
1696685894.0175724,-1.424374735429883,-1.030687751546502,14.017147353291511,0.10789567232131958,-1.8391642570495605,-2.629169225692749
1696685894.0224724,-0.7161095071583986,-0.5621016309410334,13.842100813984871,0.17074626684188843,-1.8796442747116089,-2.7079989910125732
1696685894.02749,-0.05901171057485044,0.08781476915813982,13.646407759785651,0.23892319202423096,-1.8945579528808594,-2.753805160522461
1696685894.032496,0.6995232748240232,0.7170846178382635,13.461486800312995,0.30923065543174744,-1.8828400373458862,-2.7751104831695557
1696685894.0374856,1.4284350179880858,1.3284009935706853,13.106007674336434,0.38699495792388916,-1.8583389520645142,-2.7452831268310547
1696685894.0424984,1.9876862692087889,1.934331321939826,13.067407668232917,0.47541192173957825,-1.8231853246688843,-2.689889430999756
1696685894.047485,2.4975655657052993,2.420870933756232,13.072793715596198,0.5574372410774231,-1.7731178998947144,-2.5886893272399902
1696685894.0524967,2.8386818987131117,2.8741967329382896,13.009956496357917,0.6383973360061646,-1.7283767461776733,-2.4587271213531494
1696685894.057486,2.8261144548654555,3.280843308866024,12.984821608662605,0.7140311598777771,-1.6793745756149292,-2.3149163722991943
1696685894.0624988,2.669919081330299,3.5546340498328206,13.062021620869636,0.764098584651947,-1.647416591644287,-2.1743013858795166
1696685894.0674837,2.512826033234596,3.9325550398230553,12.96327741920948,0.8120355010032654,-1.6207849979400635,-2.048600196838379
1696685894.0725005,2.3566305135935544,4.1623597273230555,12.869021590352059,0.8503850102424622,-1.6080018281936646,-1.9378126859664917
1696685894.0774848,2.1259281515330075,4.4460248884558675,12.906723921895027,0.8748860955238342,-1.5994797945022583,-1.8440693616867065
1696685894.0825002,1.9553699850291013,4.905634263455868,12.926472762227059,0.8823429346084595,-1.6101323366165161,-1.7758924961090088
1696685894.0874853,1.9104862570017576,5.181220353543758,12.725393660664558,0.8823429346084595,-1.6239808797836304,-1.7151724100112915
1696685894.0924997,1.8736816000193357,5.313178513944149,12.62126341164112,0.8855386972427368,-1.6452860832214355,-1.6672354936599731
1696685894.0974865,1.9383141683787106,5.521439011991024,12.44352384865284,0.8951261043548584,-1.675113558769226,-1.6214290857315063
1696685894.1024997,2.160039784833789,5.85268092483282,12.18768659889698,0.913235604763031,-1.704940915107727,-1.5671006441116333
1696685894.1074932,2.3718909811228515,5.995411179959774,12.007254012227058,0.9356061220169067,-1.7241157293319702,-1.5085110664367676
1696685894.1125052,2.548733015656471,6.3455042585730554,11.86003538429737,0.9643682837486267,-1.737964153289795,-1.4360730648040771
1696685894.1174877,2.728267927765846,6.696495011746883,11.626639998555182,1.0048483610153198,-1.742225170135498,-1.3433951139450073
1696685894.1225007,2.9356307512521744,6.963104356229305,11.363621352314949,1.0495895147323608,-1.7326377630233765,-1.2198244333267212
1696685894.1274846,3.1052912431955337,7.232406724393368,11.390551589131356,1.0900695323944092,-1.7166588306427002,-1.0898621082305908
1696685894.1325002,3.2157052141427993,7.529537003934383,11.38337019264698,1.1081790924072266,-1.6996146440505981,-0.9428556561470032
1696685894.1374876,3.5011657243967056,8.073527787625789,10.759486373066903,1.1369411945343018,-1.675113558769226,-0.766021728515625
1696685894.142476,3.5397657305002213,8.17676036208868,10.856435225605964,1.165703296661377,-1.637829303741455,-0.5785351991653442
1696685894.1475127,3.791114607453346,8.148932450711728,10.646379378437995,1.1870086193084717,-1.6069365739822388,-0.3899833858013153
1696685894.152471,3.720198317170143,8.602258103787898,10.421960738301276,1.193400263786316,-1.5824354887008667,-0.1822568029165268
1696685894.1575184,3.7938076311349866,9.082513993680477,10.411188643574715,1.1838128566741943,-1.5547386407852173,0.029730817303061485
1696685894.1624722,3.765979719758034,9.035834916532039,10.39233747780323,1.1422674655914307,-1.5270417928695679,0.22680474817752838
1696685894.1675193,3.9401285845041274,8.857197678983212,10.07366300880909,1.1081790924072266,-1.5046712160110474,0.45157554745674133
1696685894.172469,4.032589064240455,8.846425584256648,9.905797865986823,1.0890042781829834,-1.4705827236175537,0.6635631918907166
1696685894.1775126,3.906914625763893,8.979281419217585,9.78550889045,1.0506547689437866,-1.4343637228012085,0.8648982048034668
1696685894.1824706,3.7938076311349866,9.090593064725399,9.65624375373125,1.0016525983810425,-1.4056016206741333,1.0438625812530518
1696685894.1875143,3.729175062775612,8.99813258498907,9.39232743293047,0.9473240375518799,-1.3757741451263428,1.2334797382354736
1696685894.1924696,3.5604122453927993,8.692025559842586,9.104173898994922,0.9068440198898315,-1.3587299585342407,1.3996609449386597
1696685894.1975129,3.4508959490060804,8.46401622146368,8.936308756172657,0.8727555274963379,-1.340620517730713,1.5679727792739868
1696685894.2024727,3.384468031525612,8.3437278303504,8.67688080817461,0.8407976031303406,-1.3310331106185913,1.7171097993850708
1696685894.2075233,3.281235457062721,8.08789058059454,8.311527262032032,0.8088396787643433,-1.320380449295044,1.8534636497497559
1696685894.212474,3.1124726396799085,7.921820786893368,8.205601663887501,0.7790122628211975,-1.315054178237915,1.9802300930023193
1696685894.2175167,2.9401191240549087,7.907457993924617,8.180466776192189,0.7470543384552002,-1.3097277879714966,2.095278739929199
1696685894.2224681,2.9185749346017835,7.693811448514461,8.041327219307423,0.7182921767234802,-1.315054178237915,2.206066131591797
1696685894.2275152,2.850351668000221,7.417327683866024,7.791773691475391,0.689530074596405,-1.3235762119293213,2.3115272521972656
1696685894.232471,2.8126493364572522,7.224327653348445,7.580820169746875,0.6575721502304077,-1.3182499408721924,2.39035701751709
1696685894.237516,2.7058260637521743,7.1677741560339925,7.304336405098438,0.6213531494140625,-1.3118582963943481,2.459599018096924
1696685894.2424693,2.7372446733713147,6.911936906278133,7.032341013252735,0.5968520641326904,-1.2916183471679688,2.5448203086853027
1696685894.2475145,2.7192911821603776,6.83832759231329,6.970401468575001,0.5680899024009705,-1.2788351774215698,2.626845598220825
1696685894.2524667,2.8988260942697526,6.773695023953914,6.889610758125782,0.532936155796051,-1.2564646005630493,2.721654176712036
1696685894.2575176,3.1052912431955337,6.566332200467587,6.670578165352344,0.49778246879577637,-1.2308982610702515,2.8079404830932617
1696685894.26247,3.198649397492409,6.319471696317196,6.464113016426563,0.4732813835144043,-1.2032012939453125,2.8984880447387695
1696685894.267517,3.2264773088693617,6.226113542020321,6.211866464912891,0.4722161293029785,-1.1797655820846558,2.986905097961426
1696685894.2724664,3.403319197297096,6.3338344892859455,5.991936197578907,0.47115087509155273,-1.1424813270568848,3.089170455932617
1696685894.27752,3.677109938263893,6.385001939237117,5.936280374825,0.46475929021835327,-1.0945444107055664,3.190370559692383
1696685894.2824965,3.8036820513010023,6.341015885770321,5.9605175879597665,0.4509108364582062,-1.0412811040878296,3.3054192066192627
1696685894.2874916,3.9526960283517836,6.187513535916805,5.811503610908985,0.43812766671180725,-0.9880179166793823,3.422598123550415
1696685894.2924995,4.014635573029518,5.839215806424618,5.573619852364063,0.44771504402160645,-0.9209062457084656,3.5355162620544434
1696685894.29749,4.072984419465065,5.635443681180477,5.407550058662891,0.46582454442977905,-0.8505988121032715,3.6345858573913574
1696685894.3025002,4.117868147492409,5.666862290799617,5.497317514717579,0.47967296838760376,-0.7749650478363037,3.745373249053955
1696685894.3074915,4.088244886994362,5.592355302274227,5.504498911201954,0.4967172145843506,-0.6886786222457886,3.8518998622894287
1696685894.3125007,4.057723951935768,5.513359940946102,5.356382608711719,0.5126961469650269,-0.6077185273170471,3.959491491317749
1696685894.3174922,3.9482076555490493,5.391276200711727,5.328554697334766,0.5340014696121216,-0.5310194492340088,4.074539661407471
1696685894.3225024,3.8611332231760023,5.208150590360164,5.269308176338672,0.561698317527771,-0.46390777826309204,4.186392784118652
1696685894.3274884,3.7157099443674086,4.955006364285945,5.130168619453907,0.5925909876823425,-0.3925350606441498,4.293984413146973
1696685894.3325036,3.569388990998268,4.747643540799618,5.009880228340625,0.6373320817947388,-0.3499244749546051,4.4037065505981445
1696685894.3374891,3.461668043732643,4.703657487332821,4.946145334541797,0.689530074596405,-0.29666125774383545,4.520885467529297
1696685894.342502,3.4383285051584243,4.78444819778204,4.964098825752735,0.7236185073852539,-0.2519201338291168,4.6423258781433105
1696685894.347492,3.5002680498361585,4.790731919705868,5.113112802803516,0.7417280077934265,-0.20398323237895966,4.764831066131592
1696685894.3524983,3.578365736603737,4.634536546170711,5.303419809639454,0.7406627535820007,-0.1464589536190033,4.873488426208496
1696685894.3574862,3.570286665558815,4.3589504560828205,5.286363992989063,0.7374669313430786,-0.08573887497186661,4.983210563659668
1696685894.3624976,3.4284540849924086,3.933452714383602,5.342917490303516,0.7332059144973755,-0.01969248056411743,5.087606430053711
1696685894.3674824,3.1573563677072523,3.5636107954382896,5.3294523718953135,0.7289448380470276,0.05061497539281845,5.170697212219238
1696685894.372502,2.851249342560768,3.409210771024227,5.1211918738484385,0.7087048292160034,0.13264034688472748,5.227156162261963
1696685894.3774905,2.501156263947487,3.1587595686316488,4.950633707344532,0.7076395750045776,0.23277521133422852,5.264440059661865
1696685894.382504,2.158244435712695,2.90561534255743,4.798029324263334,0.698052167892456,0.33823639154434204,5.2836151123046875
1696685894.3874898,1.7219745992869138,2.677606004178524,4.984745340645313,0.6703553199768066,0.43411019444465637,5.281484603881836
1696685894.3924744,1.3063512777537107,1.875982475504279,5.871647806465625,0.590460479259491,0.5065481662750244,5.206915855407715
1696685894.3975167,1.2435140585154294,1.2027265550941229,5.283670969307423,0.590460479259491,0.5747250914573669,5.146195888519287
1696685894.4024713,0.8027558492869139,0.8553265001624822,5.444354715645313,0.5968520641326904,0.6354451775550842,5.047126293182373
1696685894.4075246,0.442788350507617,0.8921311571449041,5.862671060860157,0.5499804019927979,0.6908389329910278,4.907576560974121
1696685894.4124718,0.3673836874216795,0.5923078539222478,5.851001291573048,0.4999130070209503,0.7355800271034241,4.763765811920166
1696685894.4175122,0.17797437340952454,0.19194501818157733,5.881522226631641,0.46156349778175354,0.7760600447654724,4.616759300231934
1696685894.422474,-0.006048911502584815,-0.1159573560860008,5.996424570381641,0.4232139587402344,0.8005611300468445,4.459100246429443
1696685894.427513,-0.047341941287741066,-0.4606644055992365,6.105043192207813,0.38379916548728943,0.8165401220321655,4.285462379455566
1696685894.4324675,0.08192319543100893,-0.9229668042808771,6.246875772774219,0.3529064953327179,0.8303885459899902,4.115019798278809
1696685894.4375134,0.16002088219858707,-1.2209947583824396,6.473987436592579,0.3017738163471222,0.8378453850746155,3.9424471855163574
1696685894.442473,0.13937436730600894,-1.5100459668785333,6.634671182930469,0.23998846113681793,0.8676728010177612,3.761352300643921
1696685894.4475179,0.27492322594858704,-2.557632032930851,7.146345682442188,0.17607258260250092,0.9070876240730286,3.5738656520843506
1696685894.4524682,0.24619764001108704,-2.8978506913781166,7.306131754219532,0.11215672641992569,0.9710034728050232,3.3799877166748047
1696685894.4575214,0.16181623131968081,-3.308985640108585,7.5125969031453135,0.04824085906147957,1.03811514377594,3.159477949142456
1696685894.4624727,0.026267372677102684,-3.8601578202843667,7.747787638008594,0.0024344853591173887,1.1062920093536377,2.9144670963287354
1696685894.4675162,-0.14159777014516295,-4.0962462297081945,7.98746674567461,-0.03484977036714554,1.1702079772949219,2.652411937713623
1696685894.4724722,-0.22328615515492856,-4.403250929415226,8.055690012276173,-0.06680770218372345,1.2256016731262207,2.370116949081421
1696685894.4775145,-0.2906117471959442,-4.8610649552941325,7.977592325508594,-0.0827866718173027,1.2671469449996948,2.0782344341278076
1696685894.4824722,-0.4279559732228517,-5.11151615768671,7.957843485176563,-0.09343931823968887,1.293778657913208,1.7810256481170654
1696685894.4875164,-0.3965373636037111,-5.3529906144738195,8.067359781563281,-0.07532982528209686,1.2980396747589111,1.5008610486984253
1696685894.4924726,-0.4144908548146486,-5.553172041475773,8.245099344551564,-0.06041611731052399,1.2884522676467896,1.2217618227005005
1696685894.4975204,-0.33908619172871113,-5.563944136202335,8.53594590216875,-0.05082874000072479,1.2586249113082886,0.9618372321128845
1696685894.5024736,-0.10120241492055357,-5.607032515108585,8.822304086983204,-0.0550897978246212,1.2128185033798218,0.7136306166648865
1696685894.507524,0.07204877526499331,-5.782079054415226,9.077243662178516,-0.0827866718173027,1.1702079772949219,0.49205562472343445
1696685894.5124702,0.16361158044077456,-5.92750233322382,9.339364633858203,-0.1104835495352745,1.129727840423584,0.28006798028945923
1696685894.517515,0.44009532682597635,-5.997520948946476,9.545829782783985,-0.15415939688682556,1.0817909240722656,0.08405930548906326
1696685894.5224733,0.6259139608591795,-6.107037245333195,9.593406534492969,-0.21381421387195587,1.0508983135223389,-0.10449250787496567
1696685894.527521,0.6106534933298826,-6.258744246065617,9.663425150215625,-0.2819911241531372,1.0274624824523926,-0.2834569215774536
1696685894.532473,0.7282488607615232,-6.388907057344913,9.707411203682422,-0.34058067202568054,1.0029613971710205,-0.45816031098365784
1696685894.5375159,0.8997047018259764,-6.6043489518761636,9.489276285469531,-0.38106071949005127,0.9816561341285706,-0.6200805306434631
1696685894.5424745,1.0253791403025387,-6.762339674532413,9.28011811286211,-0.40875759720802307,0.972068727016449,-0.7745438814163208
1696685894.5475214,1.0936024069041013,-6.942772261202335,9.261266947090625,-0.42367130517959595,0.9752645492553711,-0.9268766641616821
1696685894.5525,1.1681093954294919,-6.958032728731632,9.13379715949297,-0.4162144362926483,0.9763298034667969,-1.0685569047927856
1696685894.5574925,1.2004256796091795,-7.015483900606632,8.956057596504689,-0.3895828425884247,0.9827213883399963,-1.2027801275253296
1696685894.5624998,1.2345373129099606,-7.230028120577336,8.806145944893359,-0.34910279512405396,1.000830888748169,-1.315698266029358
1696685894.5674844,1.3916303610056637,-7.115125776827335,8.755876169502734,-0.30329641699790955,1.0168098211288452,-1.4222246408462524
1696685894.5724998,1.511918752118945,-6.926614119112491,8.793578501045703,-0.2628163695335388,1.0349193811416626,-1.5127722024917603
1696685894.5774853,1.511021077558398,-6.924818769991398,8.885141306221485,-0.22872792184352875,1.0562245845794678,-1.5969280004501343
1696685894.582498,1.4751140951365231,-6.854800154268742,8.97849946051836,-0.20422683656215668,1.0775299072265625,-1.6842796802520752
1696685894.5874887,1.4724210714548827,-6.778497816622257,9.130206461250781,-0.18824785947799683,1.0935088396072388,-1.7577829360961914
1696685894.5924978,1.3934257101267575,-6.7255350175499915,9.298071604073048,-0.19144365191459656,1.0956394672393799,-1.849395751953125
1696685894.597487,1.3673931478708983,-6.618711744844913,9.467732096016407,-0.20529209077358246,1.1137489080429077,-1.9495306015014648
1696685894.6025014,1.433821065351367,-6.459823347628117,9.6706065467,-0.24790267646312714,1.1222710609436035,-2.062448740005493
1696685894.6074965,1.427537343427539,-6.3664651933312415,9.729853067696094,-0.2958395481109619,1.149967908859253,-2.1849539279937744
1696685894.612497,1.3135326742380857,-6.338637281954289,9.754987955391407,-0.34697225689888,1.187252163887024,-2.31598162651062
1696685894.6174874,1.2650582479685544,-6.237200056612491,9.916569960713387,-0.39597442746162415,1.2266669273376465,-2.4587271213531494
1696685894.6224997,1.3090443014353514,-6.0594604936242105,9.896821120381356,-0.44710710644721985,1.2586249113082886,-2.5929503440856934
1696685894.627491,1.5002489828318357,-5.962511641085148,9.843858321309089,-0.485456645488739,1.2948439121246338,-2.733565330505371
1696685894.6324944,1.599890859052539,-5.838632551729679,9.94709089577198,-0.5206103920936584,1.3268017768859863,-2.8571360111236572
1696685894.63749,1.749802510663867,-5.606134840548038,9.908490889668464,-0.5546988844871521,1.355563998222351,-2.9657928943634033
1696685894.642498,1.7444164633005856,-5.3933859696984285,9.853732741475104,-0.5823957324028015,1.373673439025879,-3.0701887607574463
1696685894.6474924,1.6232303976267575,-5.408646437227726,9.903104842305183,-0.6207452416419983,1.3875218629837036,-3.1628668308258057
1696685894.6524975,1.5621885275095702,-5.256041761934757,9.928239730000495,-0.6409853100776672,1.3800650835037231,-3.2544796466827393
1696685894.6574912,1.426639668866992,-5.114209181368351,9.934523451924324,-0.6580294966697693,1.3704776763916016,-3.343961715698242
1696685894.6624775,1.2928861593455077,-5.157297560274601,9.911183913350104,-0.6761389970779419,1.355563998222351,-3.4419660568237305
1696685894.6674867,1.1761884664744138,-4.958013807833194,9.914774611592293,-0.6921179890632629,1.331062912940979,-3.5452966690063477
1696685894.6724749,1.0307651876658201,-4.772195173799991,9.966839736104012,-0.7123579978942871,1.2959091663360596,-3.6496927738189697
1696685894.6775115,0.9050907491892576,-4.761423079073429,9.991974623799324,-0.7262064218521118,1.261820673942566,-3.7604801654815674
1696685894.6824698,0.750690724775195,-4.686018415987491,9.849244368672371,-0.7368590831756592,1.2277321815490723,-3.8851161003112793
1696685894.6875157,0.5909046529978513,-4.496609083712101,9.728955393135548,-0.7134232521057129,1.2021658420562744,-3.9937732219696045
1696685894.692472,0.449969746991992,-4.371832319796085,9.649960031807423,-0.6953137516975403,1.174468994140625,-4.116278648376465
1696685894.6975117,0.313523213788867,-4.239874159395694,9.549420481026173,-0.6676169037818909,1.1520984172821045,-4.224935531616211
1696685894.7024732,0.2013139119837433,-3.9975020280480384,9.661629801094533,-0.6250063180923462,1.1339889764785767,-4.329331874847412
1696685894.7075176,0.14565808922983706,-3.849385725557804,9.54672745734453,-0.5738736391067505,1.1180099248886108,-4.426270961761475
1696685894.7124734,-0.06978380530141294,-3.7497438493371007,9.478504190742969,-0.5184798836708069,1.1094878911972046,-4.512557029724121
1696685894.717517,-0.25919313757680357,-3.5971391740441323,9.646369333565234,-0.46947768330574036,1.0977699756622314,-4.593517303466797
1696685894.7224731,-0.5320862222462892,-3.3799019303917883,9.75139725714922,-0.40982285141944885,1.0700730085372925,-4.67767333984375
1696685894.7275195,-0.8669188333302736,-3.1043158403038977,9.851937392354012,-0.3608207106590271,1.042376160621643,-4.757567882537842
1696685894.7324708,-1.0778723550587892,-3.0028786149621007,10.05301649391651,-0.3182101249694824,1.0040266513824463,-4.837462902069092
1696685894.7375154,-1.2789514566212892,-2.6231622758507727,10.30346769630909,-0.2819911241531372,0.9422413110733032,-4.912031173706055
1696685894.7424777,-1.4934956765919922,-2.209334449544549,10.42106306374073,-0.24790267646312714,0.8772602081298828,-4.987665176391602
1696685894.7475147,-1.6478957010060549,-2.0127437207847834,10.419267714619636,-0.2084878832101822,0.8048222064971924,-5.054776668548584
1696685894.7524722,-1.8373050332814453,-1.5962227246910332,10.310649092793465,-0.16268151998519897,0.7206662893295288,-5.111235618591309
1696685894.7575119,-1.882188761308789,-1.1025017163902522,10.094309523701668,-0.10835301876068115,0.6429020166397095,-5.147454738616943
1696685894.7624714,-1.9647748208791016,-0.7236830518394708,9.996462996602059,-0.03804556652903557,0.5789861083030701,-5.147454738616943
1696685894.7675197,-2.034793436601758,-0.35653415657579896,9.823211806416511,0.031196627765893936,0.5321145057678223,-5.1421284675598145
1696685894.7724714,-2.0886539102345703,-0.0010550123360008,9.669708872139454,0.126005157828331,0.5065481662750244,-5.098452568054199
1696685894.7775164,-2.2277934671193362,0.2924845689628273,9.629313516914845,0.22081369161605835,0.49483028054237366,-5.038797855377197
1696685894.782472,-2.286142313554883,0.5312659838050604,9.533262338936328,0.33586227893829346,0.4895039498806,-4.952511310577393
1696685894.7875152,-2.3884772134572265,0.9827962877601385,9.901309493184089,0.4583677053451538,0.4618070721626282,-4.816157341003418
1696685894.7924712,-2.338207438066602,1.3140382006019353,9.917467635273933,0.561698317527771,0.4330449402332306,-4.674477577209473
1696685894.797518,-2.2098399759083986,1.3696940233558417,9.749601908028126,0.6618331670761108,0.3957606852054596,-4.5104265213012695
1696685894.8025038,-2.2259981179982424,1.4917777635902165,10.052118819355965,0.7470543384552002,0.3638027310371399,-4.321874618530273
1696685894.8074985,-2.498891038298607,1.746717338785529,10.266663039326668,0.8216228485107422,0.303082674741745,-4.117343902587891
1696685894.8124998,-2.618281754851341,1.9774197008460759,10.192156050801277,0.8887345194816589,0.23490573465824127,-3.917074203491211
1696685894.8174891,-2.664063157439232,2.2126104357093572,10.285514205098153,0.9537156224250793,0.1688593327999115,-3.7200002670288086
1696685894.8224978,-2.5437747663259507,2.5869408735632895,10.427346785664557,1.011240005493164,0.11453084647655487,-3.5154693126678467
1696685894.827487,-2.365137674883008,3.1040014204382897,10.562895644307137,1.066633701324463,0.0761813297867775,-3.3269176483154297
1696685894.8324997,-2.233179514482617,3.394847978055477,10.680491011738777,1.1124401092529297,0.05807182565331459,-3.1330394744873047
1696685894.8374853,-2.2457469583302734,3.650685227811336,10.610472396016121,1.1571812629699707,0.049549710005521774,-2.9391613006591797
1696685894.842501,-2.257416727617383,4.00885737746954,10.430039809346198,1.2157707214355469,0.055941298604011536,-2.7570011615753174
1696685894.847489,-2.218816721513867,4.16954112380743,10.361816542744636,1.2754255533218384,0.07298552989959717,-2.5769712924957275
1696685894.8524952,-2.2322818399220705,4.3589504560828205,10.41208631813526,1.3191014528274536,0.10174767673015594,-2.405463695526123
1696685894.85749,-2.0940399575978517,4.589652818143367,10.451583998799324,1.359581470489502,0.14435824751853943,-2.2403478622436523
1696685894.8625016,-2.0437701822072265,4.641717942655086,10.601495650410651,1.389408826828003,0.1827077716588974,-2.0912108421325684
1696685894.8674898,-2.5150491803884507,4.761108659207821,10.72537473976612,1.401126742362976,0.20188254117965698,-1.9569873809814453
1696685894.8724988,-2.633542222380638,5.084271501004696,10.959667800068855,1.404322624206543,0.20401306450366974,-1.8504610061645508
1696685894.877487,-2.783453873991966,5.28983897536993,11.13381666481495,1.3819520473480225,0.20188254117965698,-1.7641745805740356
1696685894.8824987,-2.9324678510427473,5.235080827176571,11.149974806904792,1.3436025381088257,0.1784467101097107,-1.6981282234191895
1696685894.8874857,-3.0105655378103253,5.352676194608211,11.270263198018073,1.3063182830810547,0.1454235166311264,-1.64806067943573
1696685894.892498,-3.0814818280935286,5.533108781278133,11.374393447041511,1.264772891998291,0.10600873082876205,-1.6150375604629517
1696685894.8974857,-3.0976399701833723,5.764708817899227,11.344770186543464,1.2168360948562622,0.06339815258979797,-1.5894712209701538
1696685894.9025075,-3.041984147429466,6.074406541287899,11.38606321632862,1.1667685508728027,0.009069659747183323,-1.5617743730545044
1696685894.9074962,-2.927979478240013,6.497211259305477,11.38067716896534,1.1092443466186523,-0.03886724263429642,-1.5223594903945923
1696685894.9124777,-2.633542222380638,6.9595136579871175,11.22807249367237,1.0559810400009155,-0.07082517445087433,-1.4627046585083008
1696685894.9174852,-2.266393473222852,7.209964860379696,11.229867842793464,1.0059136152267456,-0.08360834419727325,-1.370026707649231
1696685894.922476,-1.963877146318555,7.44156489700079,11.190370162129401,0.9686293601989746,-0.08254308253526688,-1.2720223665237427
1696685894.9275174,-1.695472452715039,7.808713792264461,11.044049208760262,0.9313451051712036,-0.06549885123968124,-1.1399295330047607
1696685894.9324741,-1.5419701028615236,8.04749522536993,11.069184096455574,0.9196271896362305,-0.039932508021593094,-0.9737483263015747
1696685894.9375165,-1.3705142617970705,8.608541825711727,10.753202651143074,0.9238882660865784,-0.003713513258844614,-0.7638912200927734
1696685894.9424741,-1.0608165384083985,8.922727921903133,11.159849227070808,0.8929955959320068,0.03676653653383255,-0.5476425290107727
1696685894.947513,-0.8884630227833986,8.941579087674617,11.325021346211432,0.859972357749939,0.06446341425180435,-0.31861066818237305
1696685894.9524686,-0.8597374368458987,8.88323024123907,11.510839980244636,0.8376018404960632,0.0761813297867775,-0.09490512311458588
1696685894.957513,-0.9692537332326173,8.869765122830868,11.543156264424324,0.8194923400878906,0.0665939450263977,0.12134356051683426
1696685894.9624727,-1.165844461992383,8.890411637723446,11.41748182594776,0.8131007552146912,0.03570127114653587,0.3237438201904297
1696685894.9675143,-1.272667734697461,9.016086076200008,11.32591902077198,0.8088396787643433,0.009069659747183323,0.5037735104560852
1696685894.9724715,-1.2969049478322268,9.352714036405086,11.231663191914558,0.8088396787643433,0.009069659747183323,0.5037735104560852
1696685894.9735262,-1.3067793679982422,9.583416398465634,11.07277479469776,0.7960565090179443,-0.02714933268725872,0.6795421838760376
1696685894.977516,-1.3067793679982422,9.583416398465634,11.07277479469776,0.7875344157218933,-0.05591147392988205,0.8457234501838684
1696685894.9824717,-1.2699747110158204,9.49813731521368,10.945305007100105,0.7875344157218933,-0.05591147392988205,0.8457234501838684
1696685894.9835246,-1.2699747110158204,9.32578379958868,10.807960799336433,0.7704901695251465,-0.08893466740846634,0.9916646480560303
1696685894.987522,-1.2699747110158204,9.32578379958868,10.807960799336433,0.7619680166244507,-0.12515366077423096,1.1354753971099854
1696685894.9924738,-1.1254491067677737,9.11303492873907,10.706523573994636,0.7619680166244507,-0.12515366077423096,1.1354753971099854
1696685894.9935238,-1.2484305215626954,9.237811692655086,10.493774703145027,0.7630333304405212,-0.1603073924779892,1.278220772743225
1696685894.9975195,-1.2484305215626954,9.237811692655086,10.493774703145027,0.7609027624130249,-0.188004270195961,1.402856707572937
1696685895.0024729,-0.9396304727345705,9.11034190505743,10.153556044697762,0.7609027624130249,-0.188004270195961,1.402856707572937
1696685895.0035212,-0.5895373941212892,9.209086106717587,10.216393263936043,0.7672943472862244,-0.20504850149154663,1.5434716939926147
1696685895.00753,-0.5895373941212892,9.209086106717587,10.216393263936043,0.7577069997787476,-0.20504850149154663,1.6862170696258545
1696685895.0124693,-0.885769999101758,9.422732652127742,10.332193282246589,0.7577069997787476,-0.20504850149154663,1.6862170696258545
1696685895.013527,-0.9988769937306642,9.102262834012508,10.339374678730964,0.7204227447509766,-0.21783167123794556,1.8247014284133911
1696685895.0175178,-0.9988769937306642,9.102262834012508,10.339374678730964,0.6778121590614319,-0.2433980256319046,1.9301626682281494
1696685895.0224714,-1.0006723428517579,8.63636973708868,10.184974654316902,0.6778121590614319,-0.2433980256319046,1.9301626682281494
1696685895.0235238,-1.0644072366505861,8.395792954862118,9.968635085225104,0.6597026586532593,-0.27429068088531494,2.0388195514678955
1696685895.0275154,-1.114677012041211,8.275504563748836,9.754987955391407,0.6352015733718872,-0.31583601236343384,2.131497621536255
1696685895.0324693,-1.0258072305470705,8.179453385770321,9.620336771309375,0.6352015733718872,-0.31583601236343384,2.131497621536255
1696685895.033523,-1.0258072305470705,8.179453385770321,9.620336771309375,0.6032436490058899,-0.35205498337745667,2.205000877380371
1696685895.037517,-0.8714072061330079,8.238699906766415,9.37796463996172,0.5755467414855957,-0.3882739841938019,2.2880914211273193
1696685895.0424664,-0.6254443765431642,8.069937089383602,9.00722504645586,0.5755467414855957,-0.3882739841938019,2.2880914211273193
1696685895.0435262,-0.6254443765431642,8.069937089383602,9.00722504645586,0.5435888171195984,-0.4234277307987213,2.3775737285614014
1696685895.0485048,-0.4297513223439455,7.8167928633093835,8.649052896797656,0.5190877318382263,-0.4340803623199463,2.4670560359954834
1696685895.0534904,-0.21700243323110044,7.725230058133602,8.431815653145312,0.5254793167114258,-0.4383414089679718,2.5597338676452637
1696685895.0585084,-0.01233263342641294,7.716253312528133,8.190341196358204,0.5435888171195984,-0.4234277307987213,2.647085666656494
1696685895.0634913,0.18515576989389956,7.649825395047665,7.974001627266407,0.570220410823822,-0.39360031485557556,2.7536120414733887
1696685895.0685081,0.3171139120310545,7.574420731961727,7.831271372139454,0.6064394116401672,-0.3509897291660309,2.8526816368103027
1696685895.073492,0.45894649259746073,7.53043467849493,7.781001596748829,0.6426584124565125,-0.29346543550491333,2.9624040126800537
1696685895.0784996,0.5621790670603514,7.390397447049618,7.569150400459766,0.6905953288078308,-0.22848431766033173,3.08597469329834
1696685895.0834925,0.6205279134958982,7.17136485427618,7.382434091866016,0.7417280077934265,-0.15817685425281525,3.198892593383789
1696685895.088506,0.5900069784373044,7.012476457059384,7.231624765694141,0.7971217632293701,-0.08360834419727325,3.323528528213501
1696685895.0934932,0.5882116293162107,6.9882392439246175,7.007206125557422,0.84718918800354,-0.0015829844633117318,3.4449687004089355
1696685895.098511,0.5567930196970701,6.952332261502742,6.931801462471485,0.9089745283126831,0.08683396875858307,3.567474126815796
1696685895.10349,0.4580488180369139,6.908346208035946,6.891406107246875,0.9547809362411499,0.18057724833488464,3.695305824279785
1696685895.1085052,0.36199764005839824,6.966695054471493,6.673271189033985,0.9941956996917725,0.28284263610839844,3.8273987770080566
1696685895.1134937,0.2695371785853058,6.702778733670711,6.746880502998828,1.024023175239563,0.38830381631851196,3.943512439727783
1696685895.1185105,0.03614179284311831,6.471178697049617,6.965913095772266,1.0431978702545166,0.500156581401825,4.0756049156188965
1696685895.1234891,-0.2915094217564911,6.279974015653133,6.981173563301563,1.048524260520935,0.6098787784576416,4.203436851501465
1696685895.128505,-0.6649420572072268,5.952322801053524,6.877043314278126,1.0527852773666382,0.7046873569488525,4.313158988952637
1696685895.1334896,-1.0320909524708985,5.689304154813289,6.878838663399219,1.0325453281402588,0.7888432145118713,4.406902313232422
1696685895.1385062,-1.515937540605664,5.613899491727352,6.960527048408985,1.016566276550293,0.8612812161445618,4.495319366455078
1696685895.1434963,-1.8211468911916018,5.611206468045712,7.0260572913289066,0.9728904366493225,0.9092181324958801,4.560300350189209
1696685895.1485095,-2.0590306497365236,5.311383164823055,7.129289865791797,0.9185619354248047,0.9401108026504517,4.610367774963379
1696685895.1534915,-2.121867868974805,5.052852891385555,7.308824777901172,0.8621029257774353,0.9475676417350769,4.648717403411865
1696685895.1585085,-2.1945795083791015,4.917304032742977,7.690336466133594,0.7779470086097717,0.9454371333122253,4.665761470794678
1696685895.1635015,-2.3678306985646485,4.612094682157039,7.907573709785938,0.6842037439346313,0.9273276329040527,4.668957233428955
1696685895.1685057,-2.5015840619802474,4.282648118436336,8.16520630866289,0.577677309513092,0.897500216960907,4.639130115509033
1696685895.173519,-2.5285142987966536,4.016038773953914,8.53594590216875,0.4636940062046051,0.8570201396942139,4.60504150390625
1696685895.1784801,-2.4773468488454817,3.805982926785946,8.73433198004961,0.3347970247268677,0.8080179691314697,4.556039333343506
1696685895.1835163,-2.5778863996267316,3.516034043729305,8.983885507881642,0.1909862905740738,0.7622116208076477,4.512363433837891
1696685895.1884782,-2.711639909148216,2.9819176802039147,9.188555307686329,0.04824085906147957,0.6982957720756531,4.459100246429443
1696685895.193521,-2.762807359099388,2.4047127916663884,9.072755289375781,-0.08704773336648941,0.63651043176651,4.396249771118164
1696685895.1984813,-2.9665794843435287,1.682982444986701,9.454266977608203,-0.2170100063085556,0.561941921710968,4.329138278961182
1696685895.2035217,-3.0446771711111067,0.7790241625159978,9.635597238838672,-0.3789301812648773,0.45435023307800293,4.232199192047119
1696685895.2084732,-3.0608353132009505,0.6192380907386541,8.873471536934375,-0.4620208144187927,0.3542153537273407,4.14697790145874
1696685895.2135222,-3.212542313933372,0.23682874620892108,9.029666910469532,-0.5014356374740601,0.2562110126018524,4.087323188781738
1696685895.218479,-3.173942307829857,0.23413572252728043,8.856415720283985,-0.5664168000221252,0.17631618678569794,3.995710611343384
1696685895.223518,-3.045574845671654,-0.3870550916343927,8.632894754707813,-0.6079620718955994,0.12198770046234131,3.914750337600708
1696685895.22848,-2.9387515729665754,-0.765873756185174,8.458745889961719,-0.6122231483459473,0.0761813297867775,3.850834608078003
1696685895.2335165,-2.9962027448415753,-1.326920356526971,8.457848215401173,-0.5994399785995483,0.04315812513232231,3.7890491485595703
1696685895.2384748,-2.906435288786888,-1.799097175374627,8.601476145088672,-0.5706778168678284,0.028244420886039734,3.726198673248291
1696685895.2435195,-2.6945840924978257,-2.1464972303062675,8.960545969307422,-0.5472419857978821,0.023983363062143326,3.671869993209839
1696685895.2484775,-2.662267808318138,-2.6976692643761635,9.373476267158985,-0.538719892501831,0.04422338679432869,3.626063823699951
1696685895.2535148,-2.7295934003591538,-3.3206554093956946,9.766657724678517,-0.5408504009246826,0.07511606067419052,3.5759963989257812
1696685895.2584753,-2.9037422651052474,-4.004683424532414,10.23434675514698,-0.5642862319946289,0.10281293839216232,3.5003626346588135
1696685895.2635167,-3.179328355193138,-4.844009138643742,10.621244490742683,-0.5791999697685242,0.1315750777721405,3.407684564590454
1696685895.2684765,-3.533012132048607,-5.589079023897647,11.003653853535653,-0.5898525714874268,0.14329299330711365,3.2755916118621826
1696685895.2735205,-3.93427266061306,-6.228223311007023,11.41478880226612,-0.5951789021492004,0.13477087020874023,3.115802049636841
1696685895.2784765,-4.2242215436697,-6.875446669161319,11.572779524922371,-0.5951789021492004,0.1038782000541687,2.921923875808716
1696685895.2835186,-4.441458787322044,-7.649242140352726,11.497374861836432,-0.576004147529602,0.06339815258979797,2.707805633544922
1696685895.28848,-4.507886704802513,-8.334167830049992,11.468649275898933,-0.538719892501831,0.015461246483027935,2.4713170528411865
1696685895.2935202,-4.428891343474388,-8.78839115768671,11.322328322529792,-0.47906506061553955,-0.03780197724699974,2.2369587421417236
1696685895.298503,-4.344509934782982,-9.274033094942569,11.044946883320808,-0.3991702198982239,-0.08360834419727325,1.9962090253829956
1696685895.3034928,-4.226016892790795,-9.705814558565617,10.918374770283698,-0.2958395481109619,-0.12089260667562485,1.753328800201416
1696685895.3085036,-4.1434308332204814,-9.8808616822958,10.987495711445808,-0.2031615674495697,-0.1603073924779892,1.5189706087112427
1696685895.3134904,-3.935170335173607,-10.002945422530175,10.924658492207527,-0.09770037233829498,-0.1837432086467743,1.291003942489624
1696685895.3185139,-3.585974931120872,-10.097201251387595,11.031481764912606,-0.005022365599870682,-0.19013479351997375,1.0566457509994507
1696685895.3234885,-3.313979539275169,-9.974219836592674,11.247821334004401,0.0748724713921547,-0.18161268532276154,0.8212223649024963
1696685895.328508,-2.8884817975759507,-9.858419818282128,11.066491072773934,0.1355925351381302,-0.15817685425281525,0.6028431057929993
1696685895.333491,-2.7493422406911847,-9.61604710251093,11.626639998555182,0.17607258260250092,-0.13474103808403015,0.3833986222743988
1696685895.3385046,-2.450416758134961,-9.444591261446476,11.62484464943409,0.19311681389808655,-0.11237049102783203,0.17247626185417175
1696685895.3434916,-1.9961934304982423,-9.04692143112421,11.639207442402839,0.19737787544727325,-0.09319572895765305,-0.0288587287068367
1696685895.348507,-1.7259933877736329,-8.732735334932803,11.775653975605964,0.16968099772930145,-0.07828202098608017,-0.22486738860607147
1696685895.3534873,-1.5078584695607424,-8.521781813204289,11.886965621113777,0.12920095026493073,-0.06656411290168762,-0.4080928862094879
1696685895.3585074,-1.1326305032521486,-8.317112013399601,12.081761000752449,0.08339458703994751,-0.07295570522546768,-0.571078360080719
1696685895.3634877,-0.8642258096486329,-8.12500965744257,12.25950056374073,0.024805039167404175,-0.08893466740846634,-0.7212806344032288
1696685895.3685024,-0.7223932290822267,-8.01010731369257,12.24783079445362,-0.042306624352931976,-0.1091746911406517,-0.8586997389793396
1696685895.3734932,-0.6308304239064455,-7.940088697969913,12.363630812764168,-0.10196143388748169,-0.14539368450641632,-0.9961188435554504
1696685895.3785074,-0.5024629617482423,-7.7847909989953035,12.323235457539559,-0.161616250872612,-0.1922653168439865,-1.1175590753555298
1696685895.3834913,-0.41269550569355484,-7.68245609909296,12.048547042012215,-0.22020579874515533,-0.2519201338291168,-1.2496517896652222
1696685895.3885086,-0.3175420022755861,-7.673479353487491,11.994686568379402,-0.26601216197013855,-0.3083791434764862,-1.3828098773956299
1696685895.3934891,-0.31305362947285176,-7.446367689669132,11.959677260518074,-0.3107532560825348,-0.37549081444740295,-1.5276858806610107
1696685895.398506,-0.3839699197560549,-7.176167646944522,11.719998152852058,-0.3618859648704529,-0.42236244678497314,-1.6778881549835205
1696685895.403518,-0.2986908182408661,-7.101660658419132,11.48660276710987,-0.39490917325019836,-0.46816882491111755,-1.8430041074752808
1696685895.4084744,-0.2798396524693817,-6.862879225313663,11.298091109395028,-0.42367130517959595,-0.5086489319801331,-2.0166423320770264
1696685895.4135177,-0.27445360510610045,-6.261437269747257,11.281035292744637,-0.46095556020736694,-0.5235626101493835,-2.192410945892334
1696685895.4184783,-0.01771868078969419,-5.8969813981652255,11.190370162129401,-0.5003703832626343,-0.5310194492340088,-2.390550136566162
1696685895.4235206,0.16181623131968081,-5.667176710665226,10.982109664082527,-0.5408504009246826,-0.5193015336990356,-2.5684492588043213
1696685895.4284792,0.24260694176889955,-5.160888258516788,10.93812361061573,-0.5919831395149231,-0.5075836181640625,-2.748478889465332
1696685895.433517,0.3287836813181639,-4.815283552706242,10.93812361061573,-0.6569642424583435,-0.48201724886894226,-2.9295740127563477
1696685895.4384794,0.3745650839060545,-4.552264906466007,10.831300337910651,-0.7230106592178345,-0.4575161933898926,-3.0989508628845215
1696685895.4435213,0.2910813680384308,-4.16357182174921,10.76846311867237,-0.7943833470344543,-0.4383414089679718,-3.260871171951294
1696685895.448476,0.22016507775522767,-3.8960648027062414,10.720886366963386,-0.8764087557792664,-0.4234277307987213,-3.4068124294281006
1696685895.4535244,0.2372208944056183,-3.5746973100304604,10.578156111836433,-0.9594993591308594,-0.41810140013694763,-3.5516884326934814
1696685895.4584754,0.24978833825327454,-3.324246107637882,10.52429563820362,-1.053242564201355,-0.4276887774467468,-3.6805853843688965
1696685895.463517,0.3530208944529295,-3.088157698214054,10.43542585670948,-1.1416594982147217,-0.43940669298171997,-3.7945687770843506
1696685895.4684813,0.4203464864939451,-2.9570972123742103,10.254095595479011,-1.2449902296066284,-0.4532551169395447,-3.9032256603240967
1696685895.4735186,0.3718720602244139,-2.929269300997257,10.322318862080573,-1.3408639430999756,-0.474560409784317,-4.017209053039551
1696685895.4784791,0.4382999777048826,-2.7883343949913977,10.454277022480964,-1.4324767589569092,-0.49586570262908936,-4.125865936279297
1696685895.4835224,0.493058125898242,-2.572892500460148,10.43542585670948,-1.51982843875885,-0.5224973559379578,-4.243045330047607
1696685895.4884782,0.49036510221660135,-2.4660692277550695,10.502751448750496,-1.6157022714614868,-0.5448678731918335,-4.359158992767334
1696685895.4935195,0.40059764616191385,-2.0271065137535333,10.217290938496589,-1.7041192054748535,-0.5544552803039551,-4.473142623901367
1696685895.4984756,0.27851392419077453,-1.9525995252281427,9.91836530983448,-1.7904056310653687,-0.5619121193885803,-4.595647811889648
1696685895.5035188,0.0792301717493683,-1.935543708577752,9.532364664375782,-1.8585824966430664,-0.5469984412193298,-4.712826728820801
1696685895.508475,-0.14159777014516295,-1.606097144857049,9.286401834785938,-1.90012788772583,-0.5267583727836609,-4.825745105743408
1696685895.5135238,-0.25560243933461607,-1.4490040967613458,9.141876230537891,-1.9384773969650269,-0.5097141861915588,-4.93546724319458
1696685895.518479,-0.5240071512013673,-1.2990924451500176,8.954262247383594,-1.9715005159378052,-0.47882145643234253,-5.040928363800049
1696685895.5235188,-0.5087466836720705,-1.1168645093590022,8.718173837959766,-1.9853490591049194,-0.45005932450294495,-5.141063213348389
1696685895.528498,-0.5015652871876954,-0.9741342542320489,8.41835053473711,-1.9864143133163452,-0.39892664551734924,-5.218827724456787
1696685895.5334933,-0.7259839273244142,-0.7802365491539239,8.324992380440236,-1.980022668838501,-0.34779393672943115,-5.283808708190918
1696685895.5385082,-0.5904350686818362,-0.5710783765465021,8.204703989326953,-1.9512605667114258,-0.298791766166687,-5.329615116119385
1696685895.5434904,-0.16583498327992857,-0.30267366467975076,8.10775513678789,-1.905454158782959,-0.24978959560394287,-5.3306803703308105
1696685895.548507,0.2587650838587433,-0.02080385266803205,7.936299295723438,-1.8468645811080933,-0.19120006263256073,-5.317897319793701
1696685895.553487,0.5585883688181639,0.1928426927421242,7.899494638741016,-1.7744265794754028,-0.11663154512643814,-5.282743453979492
1696685895.5585063,0.6914442037791013,0.5169031908363104,7.9237318518757816,-1.6849443912506104,-0.04738935828208923,-5.197522163391113
1696685895.563491,0.9203512167185545,0.7368334581702948,7.726243448555469,-1.5730916261672974,0.023983363062143326,-5.099517822265625
1696685895.568505,1.0576954244822263,0.8364753343909979,7.586206217110157,-1.4495209455490112,0.11133505403995514,-4.984469413757324
1696685895.5734897,1.0576954244822263,1.042940483316779,7.592489939033985,-1.3003839254379272,0.1965562105178833,-4.871551513671875
1696685895.5785058,0.9697233175486326,1.4567684557288885,7.517085275948047,-1.1395289897918701,0.29136475920677185,-4.743719577789307
1696685895.5834913,0.9086814474314451,1.7987824632972478,7.540424814522266,-0.9648256897926331,0.3627374768257141,-4.613757133483887
1696685895.5885031,0.7255558370798826,1.9890894701331854,7.403080606758595,-0.7986444234848022,0.42132702469825745,-4.47740364074707
1696685895.5934942,0.6555372213572264,2.3041732408851385,7.200206156075001,-0.6005052328109741,0.46713340282440186,-4.36022424697876
1696685895.5985057,0.41316509000957014,2.682992051541805,7.110438700020313,-0.40023547410964966,0.5129397511482239,-4.2473063468933105
1696685895.6034904,0.050504585811868306,3.142601426541805,7.216364298164844,-0.1850520670413971,0.545962929725647,-4.143975734710693
1696685895.6085072,-0.015025657108053564,3.780848039090633,7.39859223395586,0.02587030455470085,0.5789861083030701,-4.019339561462402
1696685895.6134882,0.15283948571421205,4.290727189481259,7.710982981026173,0.23785792291164398,0.6045525074005127,-3.8755288124084473
1696685895.6185105,0.370974385663867,4.778164475858212,8.070052805244922,0.42960554361343384,0.6375756859779358,-3.7093474864959717
1696685895.6235068,0.4706162618845701,5.244057572782039,8.410271463692188,0.5936562418937683,0.6748599410057068,-3.514404058456421
1696685895.6285102,0.45894649259746073,5.533108781278133,8.513504038155078,0.7332059144973755,0.6919041872024536,-3.2885680198669434
1696685895.633494,0.38174648039042947,5.675839036405086,8.561080789864063,0.8674291968345642,0.6993610262870789,-3.0350351333618164
1696685895.6385052,0.17528134972788392,6.018750718533993,8.93541108161211,0.9760861992835999,0.6982957720756531,-2.7815022468566895
1696685895.6435156,0.1797697225306183,6.532220567166805,9.430927439033985,1.0463937520980835,0.6759251952171326,-2.525838613510132
1696685895.6484792,0.16091855675913394,6.971183427274227,9.67689026862383,1.0751558542251587,0.6503588557243347,-2.2680447101593018
1696685895.6535199,-0.10838381140492856,7.237792771756649,9.939909499287605,1.0634379386901855,0.6226619482040405,-2.0315558910369873
1696685895.65848,-0.3139513040333986,7.348206742703915,10.35822584450245,1.031480073928833,0.5960303544998169,-1.8312861919403076
1696685895.6635191,-0.41000248201191425,7.548388169705867,10.627528212666512,0.9824777841567993,0.561941921710968,-1.668300747871399
1696685895.6684828,-0.5419606424123049,7.736899827420712,10.896830580830574,0.9164313673973083,0.524657666683197,-1.5372732877731323
1696685895.6735246,-0.5796629739552737,8.129183610379696,11.391449263691902,0.8280144333839417,0.487373411655426,-1.4382036924362183
1696685895.6784806,-0.497974588945508,8.470299943387507,11.544951613545418,0.7097700834274292,0.44476282596588135,-1.3487213850021362
1696685895.6835198,-0.5069513345509767,8.685741837918759,11.588039992451668,0.5957868099212646,0.39789119362831116,-1.2645654678344727
1696685895.6884818,-0.42885364778339863,8.867072099149226,11.508146956562996,0.5073698163032532,0.3595416843891144,-1.1772137880325317
1696685895.6935227,-0.11825823157094419,9.178565171658992,11.545849288105964,0.4178876280784607,0.31373530626296997,-1.0792094469070435
1696685895.6984785,0.12321622521616518,9.392211717069149,11.386960890889167,0.33692753314971924,0.26366788148880005,-0.9662914872169495
1696685895.7035182,0.37905345670878887,9.527760575711726,11.321430647969246,0.263424277305603,0.20933938026428223,-0.8278070688247681
1696685895.7084825,0.4580488180369139,9.701011765897274,11.26846784889698,0.19737787544727325,0.15074984729290009,-0.6861268877983093
1696685895.713523,0.442788350507617,9.731532700955867,11.186779463887214,0.13772307336330414,0.10707399994134903,-0.5305982828140259
1696685895.718481,0.37366740934550763,9.590597794950009,11.097012007832527,0.08445984870195389,0.06446341425180435,-0.3846570551395416
1696685895.7235224,0.17528134972788392,9.55558848708868,11.107784102559089,0.03332715481519699,0.02611389197409153,-0.25789058208465576
1696685895.7284799,0.029858070919290183,9.596881516873836,11.218198073506356,-0.013544481247663498,-0.002648248802870512,-0.1492336094379425
1696685895.7335186,-0.10030474036000668,9.52686290115118,11.06469572365284,-0.06148138269782066,-0.04525882750749588,-0.06507772207260132
1696685895.7384813,-0.22328615515492856,9.348225663602351,10.841174758076667,-0.0923740565776825,-0.07508622854948044,0.01694764383137226
1696685895.7435217,-0.2995884928014129,9.36617915481329,10.758588698506355,-0.11687513440847397,-0.10810942947864532,0.08299404382705688
1696685895.7484782,-0.16403963415883482,9.378746598660946,10.627528212666512,-0.12752778828144073,-0.13047997653484344,0.14584465324878693
1696685895.7535205,-0.04823961584828794,9.332067521512508,10.465946791768074,-0.13072358071804047,-0.14539368450641632,0.22893528640270233
1696685895.7584767,0.11783017785288394,9.356304734647274,10.386951430439948,-0.1200709268450737,-0.15924212336540222,0.32480907440185547
1696685895.763527,0.34404414884746076,9.385927995145321,10.286411879658699,-0.09343931823968887,-0.1645684540271759,0.45051029324531555
1696685895.768477,0.5038302206248045,9.482876847684382,10.202030470967292,-0.06680770218372345,-0.15817685425281525,0.5857988595962524
1696685895.7735193,0.6106534933298826,9.550202439725398,10.216393263936043,-0.032719243317842484,-0.13474103808403015,0.7370664477348328
1696685895.778509,0.6420721029490233,9.686648972928523,10.10238859474659,-0.008218158967792988,-0.11130522191524506,0.8968561291694641
1696685895.7834926,0.5962907003611326,9.78539317458868,10.028779280781746,0.01947871781885624,-0.07295570522546768,1.0726248025894165
1696685895.7885065,0.4221418356150389,9.677672227323056,10.05930021584034,0.042914535850286484,-0.035671450197696686,1.236675500869751
1696685895.7934911,0.35032787077128885,9.65343501418829,9.940807173848151,0.0652850866317749,0.012265453115105629,1.397530436515808
1696685895.7985125,0.20400693566538394,9.59598384231329,9.644573984444142,0.08552511781454086,0.055941298604011536,1.554124355316162
1696685895.8034916,0.17169065148569643,9.448765214383602,9.333080911934376,0.11109146475791931,0.10920452326536179,1.7107181549072266
1696685895.8085098,0.18066739709116517,9.579825700223445,9.19394135504961,0.14731045067310333,0.16566354036331177,1.8694425821304321
1696685895.8134909,0.282104622432962,9.75936061233282,9.074550638496875,0.18885576725006104,0.23490573465824127,2.0388195514678955
1696685895.8185103,0.370974385663867,9.744997819364071,8.991066904366017,0.22081369161605835,0.32438793778419495,2.226306200027466
1696685895.8234951,0.31531856290996074,9.675876878201962,9.039541330635547,0.254902184009552,0.41173964738845825,2.4169886112213135
1696685895.8285089,0.23632321984507143,9.622914079129696,9.178680887520313,0.29857802391052246,0.4926997423171997,2.6108667850494385
1696685895.8334932,0.14476041466929018,9.506216386258602,9.228052988350392,0.3390580713748932,0.5672682523727417,2.8036794662475586
1696685895.838509,-0.00874193518422544,9.419141953885555,9.241518106758594,0.38273391127586365,0.6279882788658142,2.995427131652832
1696685895.8434927,-0.16224428503774105,9.45774195998907,9.26306229621172,0.41895291209220886,0.6759251952171326,3.170130491256714
1696685895.8485157,-0.22777452795766293,9.416448930203915,9.303457651436329,0.4498455822467804,0.7132094502449036,3.348029613494873
1696685895.8534906,-0.36332340486347675,9.29705821365118,9.298071604073048,0.47647717595100403,0.7409063577651978,3.5206024646759033
1696685895.8585088,-0.6110815835744142,9.088797715604304,9.350136728584767,0.5041740536689758,0.748363196849823,3.676131248474121
1696685895.863491,-0.7295746255666017,8.997234910428524,9.173294840157032,0.5361319780349731,0.7366452813148499,3.826333522796631
1696685895.868509,-0.806774637773633,8.976588395535945,8.872573862373828,0.5691551566123962,0.7291884422302246,3.9658830165863037
1696685895.8734941,-0.8875653482228517,8.914648850858212,8.76305756598711,0.6096352338790894,0.7217316031455994,4.08945369720459
1696685895.8785093,-0.8031839395314455,8.989155839383601,8.720866861641406,0.6352015733718872,0.7185357809066772,4.210893630981445
1696685895.8834896,-0.8435792947560549,8.98107676833868,8.666108713448047,0.6437236666679382,0.7164052724838257,4.350443363189697
1696685895.888506,-0.8866676736623048,8.757555802762509,8.742411051094532,0.6490499973297119,0.7185357809066772,4.488927841186523
1696685895.8934886,-0.8606351114064454,8.531341813504696,8.819611063301563,0.6394626498222351,0.719601035118103,4.618889808654785
1696685895.8985078,-0.9890025735646486,8.252165025174618,8.660722666084766,0.6234836578369141,0.7153399586677551,4.733938694000244
1696685895.9035118,-1.1891840005666017,7.90386729568243,8.46682496100664,0.6032436490058899,0.7100136876106262,4.843660831451416
1696685895.9084816,-1.4486119485646485,7.780885880887508,8.408476114571094,0.5734162330627441,0.7004262804985046,4.948056697845459
1696685895.9135184,-1.589546854570508,7.6830393537878985,8.476699381172656,0.5233488082885742,0.6940346956253052,5.043930530548096
1696685895.9184792,-1.7188119912892579,7.406555589139462,8.509015665352344,0.4551719129085541,0.6876431107521057,5.135543346405029
1696685895.9235258,-2.0114538980275394,6.823067124783993,8.474006357491016,0.3806033730506897,0.682316780090332,5.2133073806762695
1696685895.9284792,-2.284346964433789,6.214443772733211,8.35192261725664,0.31242644786834717,0.6674031019210815,5.278288841247559
1696685895.93352,-2.455802659392357,5.538494828641414,8.201113291084766,0.24531477689743042,0.6588809490203857,5.332617282867432
1696685895.938482,-2.6146910566091535,5.069908708035946,8.074541178047657,0.18352943658828735,0.6535546183586121,5.377358436584473
1696685895.9435215,-2.698174790740013,4.785345872342586,8.202010965645313,0.11322199553251266,0.6588809490203857,5.412511825561523
1696685895.9484785,-2.806793412566185,4.343689988553524,8.109550485908985,0.04504506662487984,0.6620767712593079,5.4519267082214355
1696685895.9535193,-2.8813004010915755,3.9181922468543053,7.798955087959766,-0.008218158967792988,0.673794686794281,5.4870805740356445
1696685895.9584773,-3.152398118376732,3.395745652616024,7.7038015845417975,-0.035915035754442215,0.6812515258789062,5.495602607727051
1696685895.9635196,-3.5419888776540756,3.0016665205359456,7.612238779366016,-0.04550241678953171,0.682316780090332,5.491341590881348
1696685895.9684823,-3.2179283612966536,2.3032755663245914,7.248680582344532,-0.032719243317842484,0.695099949836731,5.493472099304199
1696685895.9735208,-3.545579575896263,1.940615043863654,7.251373606026172,-0.00928342342376709,0.7100136876106262,5.479623794555664
1696685895.978477,-3.827449387907982,1.7556940843909978,7.280099191963672,-0.0018265724647790194,0.7121441960334778,5.43062162399292
1696685895.9835162,-4.050072678923606,1.416373100504279,7.120313120186329,0.01947871781885624,0.711078941822052,5.3528571128845215
1696685895.9884796,-4.272695969939232,0.8301916124671698,7.026954965889454,0.06315456330776215,0.6940346956253052,5.23035192489624
1696685895.9935236,-4.351691331267356,0.36070781730115414,7.0547828772664065,0.09191670268774033,0.6631420254707336,5.0993242263793945
1696685895.9984815,-4.75295185983181,0.3301868822425604,7.031443338692188,0.10363461077213287,0.6333146095275879,4.929947376251221
1696685896.0035193,-4.726021623015404,-0.11775270520709455,6.988354959785938,0.11322199553251266,0.6226619482040405,4.716894149780273
1696685896.0084755,-4.617403001189231,-0.4983667371422052,6.746880502998828,0.13878832757472992,0.6120093464851379,4.503841400146484
1696685896.0135183,-4.500705308318138,-0.5522272107750177,6.756754923164844,0.15902835130691528,0.6141398549079895,4.283331871032715
1696685896.0184755,-4.145226182341576,-0.6985481641441583,6.837545633614063,0.16435468196868896,0.6290535926818848,4.061756610870361
1696685896.023521,-3.7340912336111067,-0.8287109754234552,6.851010752022266,0.17607258260250092,0.6588809490203857,3.8529651165008545
1696685896.0284781,-3.2915376752614973,-0.8726970288902521,7.144550333321094,0.17287679016590118,0.7078831195831299,3.6633479595184326
1696685896.0335212,-2.837314347624779,-0.9256598279625177,7.482973642647266,0.15689782798290253,0.7739295363426208,3.487579345703125
1696685896.0384963,-2.524923600554466,-1.1033993909507989,7.678666696846485,0.13346201181411743,0.8474327921867371,3.3245937824249268
1696685896.043492,-2.4324632669240236,-1.2856273267418146,7.938094644844532,0.09085144102573395,0.9315886497497559,3.183979034423828
1696685896.0485091,-2.3624446512013675,-1.389757575765252,8.071848154366016,0.0514366514980793,0.9976350665092468,3.034842014312744
1696685896.0534961,-2.1021190286427736,-1.3933482740074397,8.186750498116016,-0.0018265724647790194,1.0540940761566162,2.8899660110473633
1696685896.058508,-2.309481852129102,-1.6025064466148615,8.045815592110158,-0.049763474613428116,1.0817909240722656,2.7536120414733887
1696685896.063487,-2.2385655618458986,-1.6213576123863458,8.378852854073047,-0.11261408030986786,1.1062920093536377,2.6002140045166016
1696685896.068508,-2.420793497636914,-1.727283210530877,8.354615640938281,-0.17866048216819763,1.1062920093536377,2.450011730194092
1696685896.0734894,-2.5159468549489974,-1.9831204602867365,8.348331919014454,-0.23405423760414124,1.0988352298736572,2.2966136932373047
1696685896.078514,-2.7017654889822005,-2.238060035482049,8.031452799141407,-0.2734690010547638,1.0817909240722656,2.130432367324829
1696685896.0834913,-2.3579562783986328,-2.2838414380699397,7.822294626533985,-0.2873174548149109,1.0722036361694336,1.9749038219451904
1696685896.088508,-1.95669574983418,-2.203948402181268,7.861792307198048,-0.2873174548149109,1.0903130769729614,1.8257668018341064
1696685896.09349,-1.582365458086133,-1.9678599927574396,8.045815592110158,-0.2766647934913635,1.1201404333114624,1.6926087141036987
1696685896.0985086,-1.1119839883595706,-1.9624739453941582,8.17687607795,-0.2734690010547638,1.1595553159713745,1.5956696271896362
1696685896.103491,-0.8184444070607424,-2.1536786267906427,8.305243540108204,-0.26068583130836487,1.2213406562805176,1.5317537784576416
1696685896.1085064,-0.5967187906056642,-2.2999995801597835,8.447973795235157,-0.23405423760414124,1.2905827760696411,1.4816863536834717
1696685896.1134908,-0.24931871741078793,-2.2622972486168145,8.712787790596485,-0.21807527542114258,1.3598250150680542,1.4497283697128296
1696685896.11851,-0.10838381140492856,-2.2344693372398616,8.979397135078907,-0.1946394443511963,1.4333282709121704,1.434814691543579
1696685896.1234946,-0.09671404211781919,-2.2838414380699397,9.50722977668047,-0.19250892102718353,1.492983102798462,1.4188357591629028
1696685896.1285079,-0.0787605509068817,-2.404129829183221,9.904900191426277,-0.19996577501296997,1.5355936288833618,1.4262925386428833
1696685896.1334894,-0.26547685950063166,-2.5755855241417884,10.006337416768075,-0.20635735988616943,1.547311544418335,1.427357792854309
1696685896.1385112,-0.6478862405568361,-2.77038090378046,10.264867690205573,-0.2127489447593689,1.547311544418335,1.4092483520507812
1696685896.1434982,-0.9575839639455079,-2.931962324678898,10.637402632832528,-0.21381421387195587,1.5121577978134155,1.3666377067565918
1696685896.148514,-1.1972630716115236,-3.0136507096886636,10.90670500099659,-0.236184760928154,1.4471766948699951,1.298460841178894
1696685896.153526,-1.4055235696583985,-3.300906569063663,11.154463179707527,-0.24790267646312714,1.365151286125183,1.2185659408569336
1696685896.1584785,-1.4692584634572268,-3.613297316133976,11.508146956562996,-0.2542942464351654,1.2532985210418701,1.1184310913085938
1696685896.1635232,-1.459384043291211,-3.7964229264855383,11.796300490498542,-0.2596205770969391,1.1457068920135498,1.0140352249145508
1696685896.1684813,-1.3651282144337893,-4.04597645431757,12.014435408711433,-0.2553595006465912,1.0274624824523926,0.8947255611419678
1696685896.1735172,-1.3606398416310548,-4.296427656710148,12.176914504170417,-0.25216370820999146,0.9198707938194275,0.7743507027626038
1696685896.1784828,-1.3857747293263674,-4.406841627657413,12.225388930439948,-0.22872792184352875,0.8133442997932434,0.6624979376792908
1696685896.1835213,-1.273565409258008,-4.596250959932804,12.284635451436042,-0.20103104412555695,0.7153399586677551,0.5463840961456299
1696685896.1884782,-1.294211924150586,-4.902357985079289,12.373505232930183,-0.161616250872612,0.6194661855697632,0.4387923777103424
1696685896.193524,-1.3247328592091798,-5.1043347612023355,12.473147109150887,-0.10941828787326813,0.5321145057678223,0.3333311975002289
1696685896.1984823,-1.4423282266408204,-5.402362715303898,12.516235488057136,-0.06361190974712372,0.4511544108390808,0.23319634795188904
1696685896.203523,-1.7726724649220704,-5.719241835176945,12.643705275654792,-0.010348687879741192,0.38936907052993774,0.12773515284061432
1696685896.2084765,-2.177523691728711,-5.892493025362492,12.87979368507862,0.035457685589790344,0.32864901423454285,0.009490793570876122
1696685896.2135253,-2.429770243242383,-6.049586073458195,13.17602629005909,0.07806826382875443,0.27219000458717346,-0.11514515429735184
1696685896.2184877,-2.6146910566091535,-6.359283796846866,13.459691451191901,0.1025693491101265,0.20933938026428223,-0.23978108167648315
1696685896.2235208,-2.6604724591970443,-6.679753614962101,14.101528761982918,0.11002619564533234,0.14861930906772614,-0.3846570551395416
1696685896.2284837,-2.7699887555837632,-6.903274580538272,14.954319594502449,0.09404723346233368,0.10174767673015594,-0.5465772747993469
1696685896.2335222,-3.1622725385427475,-7.00740482956171,15.685924361348151,0.05250191688537598,0.08150764554738998,-0.7372596263885498
1696685896.2384815,-3.54647725045681,-7.289274641573429,16.24697096168995,-0.008218158967792988,0.057006560266017914,-0.9481819868087769
1696685896.243522,-3.5868726056814193,-7.760553785860538,16.946259444355963,-0.07000350207090378,0.027179155498743057,-1.1804096698760986
1696685896.2484818,-3.3211609357595444,-7.89789799362421,17.689533980488775,-0.10409196466207504,0.0016128089046105742,-1.424355149269104
1696685896.253521,-2.8830957502126693,-8.175279432833195,18.333166640400886,-0.1339193731546402,-0.015431422740221024,-1.6736271381378174
1696685896.2584815,-2.920798081755638,-8.312623640596867,19.048613265156746,-0.13285410404205322,-0.02714933268725872,-1.9122463464736938
1696685896.2635205,-3.080584153532982,-8.306339918673038,19.582729628682134,-0.11687513440847397,-0.05591147392988205,-2.1402130126953125
1696685896.268478,-3.394770249724388,-8.422139936983585,19.731742436885835,-0.06787297129631042,-0.12621892988681793,-2.3447437286376953
1696685896.2735202,-3.6595842450857163,-8.613344618380069,19.827793614864348,0.013087130151689053,-0.2391369640827179,-2.524773359298706
1696685896.2784805,-3.8436075299978256,-8.52986088424921,19.837668035030365,0.1398535966873169,-0.3914697766304016,-2.6813673973083496
1696685896.2835202,-4.108421525359153,-8.177972456514835,19.917561070919035,0.292186439037323,-0.5853479504585266,-2.829439163208008
1696685896.288477,-4.455821580290794,-7.6178235307335855,20.148263432979583,0.42960554361343384,-0.8186408877372742,-2.967923402786255
1696685896.2935185,-4.768212327361106,-6.91853504806757,20.310742528438567,0.5478498935699463,-1.0870875120162964,-3.095755100250244
1696685896.2985117,-4.979165849089623,-6.358386122286319,20.212896001338958,0.6426584124565125,-1.389622688293457,-3.210803747177124
1696685896.3034909,-5.305021714568138,-6.051381422579288,19.72635638952255,0.735336422920227,-1.7155935764312744,-3.3120038509368896
1696685896.3085032,-5.322975205779075,-5.431985975801944,19.2909853965044,0.822688102722168,-2.040499210357666,-3.410008192062378
1696685896.313494,-5.324770554900169,-4.490325361788273,18.89780393898487,0.8834081888198853,-2.338773250579834,-3.5101430416107178
1696685896.318506,-5.651524094939232,-3.6429205766320227,18.317906172871588,0.8919302821159363,-2.6082851886749268,-3.6145389080047607
1696685896.323489,-5.954938096404075,-3.0136507096886636,17.60245954811573,0.8834081888198853,-2.8479695320129395,-3.7157390117645264
1696685896.3285081,-6.208082322478294,-2.558529707491398,16.670673354268075,0.859972357749939,-3.0716750621795654,-3.811612844467163
1696685896.333493,-6.245784654021263,-1.9696553418785334,15.56294294655323,0.8418628573417664,-3.2549006938934326,-3.8978993892669678
1696685896.3385055,-6.166789292693138,-1.3735994336754083,14.595249770283699,0.8333407640457153,-3.3901891708374023,-3.975663661956787
1696685896.343493,-5.9450636762380595,-0.764976081624627,13.878007796406745,0.8173617720603943,-3.4828672409057617,-4.031057834625244
1696685896.348509,-5.710770615935325,-0.20662248670123518,13.158970473408699,0.7917954325675964,-3.540391445159912,-4.0587544441223145
1696685896.3534894,-5.569835709929466,0.24131711901165545,12.538677352070808,0.7566417455673218,-3.570218801498413,-4.03957986831665
1696685896.3585086,-5.368756608366966,0.390331077799201,11.998277266621589,0.7257490754127502,-3.591524124145508,-3.995903730392456
1696685896.363494,-5.260137986540794,0.6138520433753729,11.552133010029792,0.7001826763153076,-3.6234822273254395,-3.9394445419311523
1696685896.3685067,-5.022254227995872,0.8625078966468572,11.123942244648934,0.6618331670761108,-3.6575706005096436,-3.8787245750427246
1696685896.3734915,-4.817584428191185,1.0492242052406073,10.732556136250496,0.5979173183441162,-3.6980507373809814,-3.8084170818328857
1696685896.3785076,-4.478263444304466,1.244019584879279,10.28910490334034,0.5435888171195984,-3.743856906890869,-3.727457046508789
1696685896.3834927,-4.087775010466576,1.516912651285529,10.030574629902839,0.4636940062046051,-3.7907285690307617,-3.6347789764404297
1696685896.3885083,-3.553658646941185,1.5617963793128729,9.728057718575,0.35929811000823975,-3.8280129432678223,-3.54955792427063
1696685896.3935015,-3.3839981549978253,1.7072196581214665,9.302559976875783,0.25170639157295227,-3.845057249069214,-3.4717936515808105
1696685896.398512,-3.2269051069021226,1.7996801378577947,8.814225015938282,0.15050624310970306,-3.879145622253418,-3.408942937850952
1696685896.403521,-2.797816666960716,1.897526664957404,8.237917948067189,0.06102403253316879,-3.895124673843384,-3.3524839878082275
1696685896.4084811,-2.1532864785939454,2.0662894823402165,7.900392313301563,-0.046567682176828384,-3.8919286727905273,-3.2992208003997803
1696685896.4135237,-1.717914316728711,1.962159233316779,7.42731781989336,-0.1520288735628128,-3.8525140285491943,-3.2331743240356445
1696685896.4184828,-1.2035467935353517,1.8167359545081854,6.921029367744922,-0.2212710678577423,-3.799250841140747,-3.16180157661438
1696685896.423576,-1.0069560647755862,1.6093731310218573,6.4237176612019535,-0.2628163695335388,-3.739595890045166,-3.0936245918273926
1696685896.428478,-0.8220351053029299,1.5231963732093572,6.042205972969532,-0.29477429389953613,-3.6735496520996094,-3.0435571670532227
1696685896.4335227,-0.6317280984669924,1.3490475084632634,5.579903574287891,-0.3192753791809082,-3.6075031757354736,-3.007338285446167
1696685896.4384785,-0.5661978555470705,1.1632288744300603,5.199289560616016,-0.31714484095573425,-3.5297389030456543,-2.9689886569976807
1696685896.4435234,-0.4225699258595705,1.007033500894904,4.863559567183256,-0.3011658787727356,-3.456235647201538,-2.947683334350586
1696685896.4484792,-0.40282108552753926,0.9747172167152166,4.475764157027006,-0.27453428506851196,-3.3848628997802734,-2.9444875717163086
1696685896.453523,-0.34716526277363297,1.0384521105140447,4.014359432905913,-0.236184760928154,-3.317751169204712,-2.9540750980377197
1696685896.4584794,-0.2906117471959442,1.0671776964515447,3.7109454314410684,-0.20209629833698273,-3.25809645652771,-2.973249673843384
1696685896.4635222,-0.14429079382680357,1.2458149340003728,3.4380523650348187,-0.17333416640758514,-3.198441505432129,-3.01159930229187
1696685896.4684792,0.05678830773569643,1.4253498461097478,3.0448709075152873,-0.15309414267539978,-3.138786792755127,-3.047818183898926
1696685896.4735188,0.20669995934702456,1.6237359239906073,2.781852261275053,-0.13711516559123993,-3.0759360790252686,-3.1042773723602295
1696685896.4784832,0.5119092916697263,2.0815499498695136,2.517935940474272,-0.14457201957702637,-3.005628824234009,-3.1649973392486572
1696685896.4835215,0.7462023519724608,2.600405991971493,2.284540408626199,-0.16694258153438568,-2.9289298057556152,-3.2193257808685303
1696685896.4884822,1.010118672773242,2.9172851118445395,1.8787915072590111,-0.19783525168895721,-2.8437085151672363,-3.2725889682769775
1696685896.4935253,1.469728047773242,3.3418851789832114,1.48561004973948,-0.22979317605495453,-2.7393126487731934,-3.320525884628296
1696685896.4984834,1.97870952360332,3.7054433760046956,1.118461154475808,-0.2585552930831909,-2.621068239212036,-3.350353479385376
1696685896.5035179,2.5846399980783463,4.199164384305477,0.8078657565265893,-0.29797008633613586,-2.4847145080566406,-3.365267038345337
1696685896.5084832,2.8386818987131117,4.795220292508602,0.4838052766956389,-0.3427112102508545,-2.329185724258423,-3.355679750442505
1696685896.513526,2.548733015656471,5.104020341336727,-0.3995064908824861,-0.3618859648704529,-2.1725919246673584,-3.3183953762054443
1696685896.5184827,2.3817654012888667,5.733290208280087,-1.6768974270671606,-0.32673221826553345,-1.9893665313720703,-3.2683279514312744
1696685896.5235236,3.5523331743478774,5.96489024490118,-1.8950323452800513,-0.29370903968811035,-1.7933578491210938,-3.1980204582214355
1696685896.5285115,4.107096052765846,6.483746140897273,-2.581753237992525,-0.23298896849155426,-1.555803894996643,-3.065927743911743
1696685896.5334973,4.284835615754127,7.314095109403133,-3.1813998444378373,-0.16800783574581146,-1.266052007675171,-2.902942419052124
1696685896.5385108,4.711231032013893,7.671369584500789,-3.408511508256197,-0.09024352580308914,-0.9624515771865845,-2.698411464691162
1696685896.5434914,5.1160822588205335,7.981964982450008,-3.726288302689791,-0.046567682176828384,-0.6098490357398987,-2.489619731903076
1696685896.5485091,5.090947371125221,7.6372579512000085,-3.7191069062054156,0.015217659994959831,-0.26896438002586365,-2.2744362354278564
1696685896.5534918,5.12864970266819,7.74318354934454,-3.5404696686565873,0.05782824009656906,0.09216029196977615,-2.073101282119751
1696685896.5585058,5.326138105988503,7.5851928266882895,-3.1302323944866655,0.08019879460334778,0.4554154872894287,-1.9122463464736938
1696685896.5634909,5.222905531525612,7.77190913528204,-2.5611067230999467,0.06848088651895523,0.8016263842582703,-1.7577829360961914
1696685896.568514,5.020928755402565,7.998123124539852,-2.0018556179851292,0.0375882126390934,1.0967047214508057,-1.60545015335083
1696685896.5734923,4.839598494172096,8.132774308621883,-1.6068788113445043,-0.022066596895456314,1.3395849466323853,-1.4712268114089966
1696685896.5785112,4.741751967072487,7.896685899198055,-1.5036462368816137,-0.08385194092988968,1.5323978662490845,-1.3508518934249878
1696685896.5834968,4.8494729143381115,7.6255881819128986,-1.479409023746848,-0.13498464226722717,1.6826001405715942,-1.2294118404388428
1696685896.5885124,4.969761305451393,7.385909074246883,-1.437218319401145,-0.17333416640758514,1.795518159866333,-1.1101021766662598
1696685896.593492,4.906924086213111,7.244076493680477,-1.4964648403972387,-0.21061842143535614,1.8722171783447266,-0.976944088935852
1696685896.5985124,4.748035688996315,7.350899766385555,-1.5099299588054418,-0.24364161491394043,1.920154094696045,-0.8427208065986633
1696685896.603488,4.601714735627175,7.551081193387509,-1.6993392910808325,-0.26707741618156433,1.9563730955123901,-0.7180848717689514
1696685896.6085079,4.561319380402565,7.794350999295712,-1.974925381168723,-0.27133849263191223,2.0064406394958496,-0.5945141911506653
1696685896.6134946,4.5433658891916275,7.902969621121883,-2.125734707340598,-0.2809258699417114,2.059703826904297,-0.469878226518631
1696685896.618507,4.521821699738503,7.927206834256649,-2.3815719570964573,-0.27027320861816406,2.1353375911712646,-0.3537643849849701
1696685896.6234934,4.344082136750221,7.786271928250789,-2.842976535111666,-0.24683740735054016,2.232276678085327,-0.24084635078907013
1696685896.6285079,3.978728590607643,7.693811448514461,-3.241544039994478,-0.21168369054794312,2.3558473587036133,-0.15136413276195526
1696685896.6334908,3.607091322541237,7.7584440168738364,-3.4480091889202593,-0.17652995884418488,2.4879403114318848,-0.06507772207260132
1696685896.6385145,3.2722587114572526,7.834746354520321,-3.5889440949261187,-0.16800783574581146,2.626424551010132,0.011621322482824326
1696685896.6435173,2.871895857453346,7.653416093289852,-3.5117440827190873,-0.1658773124217987,2.775561571121216,0.06914560496807098
1696685896.648485,2.4069002889841795,7.122890428006649,-3.2810417206585405,-0.16481204330921173,2.928959608078003,0.10429932922124863
1696685896.6535234,2.0532165121287105,6.750355485379695,-2.906711428910494,-0.16907310485839844,3.0706398487091064,0.12240882962942123
1696685896.658491,1.5810396932810544,6.3688437971472736,-2.3941394009441135,-0.19250892102718353,3.193145275115967,0.1149519756436348
1696685896.6635187,0.880853536054492,5.814978593289852,-1.2891020169109106,-0.2351195067167282,3.2890191078186035,0.08618983626365662
1696685896.6684804,0.7426116537302733,5.381401780545711,-0.9488833584636449,-0.30223116278648376,3.3774361610412598,0.05636243149638176
1696685896.6735253,0.3593046163767576,4.847285417020321,-0.7029205288738012,-0.3853217661380768,3.4381561279296875,0.030796082690358162
1696685896.6784794,-0.12364427893422544,4.398448136746883,-0.4425948697887361,-0.3853217661380768,3.4381561279296875,0.030796082690358162
1696685896.679535,-0.12364427893422544,4.398448136746883,-0.4425948697887361,-0.4577597677707672,3.4839625358581543,0.003099206369370222
1696685896.6835217,-0.5213141275197267,3.985517838895321,-0.2558785611949861,-0.5440462231636047,3.52018141746521,-0.03525031730532646
1696685896.6884773,-1.0392723489552735,3.7018526777625085,-0.03235759561881423,-0.5440462231636047,3.52018141746521,-0.03525031730532646
1696685896.6895216,-1.0392723489552735,3.7018526777625085,-0.03235759561881423,-0.6399199962615967,3.5617268085479736,-0.0981009230017662
1696685896.6935203,-1.7385608316212893,3.473843339383602,0.32581455403938886,-0.7528380751609802,3.608598470687866,-0.1534946709871292
1696685896.6984808,-2.1173794961720707,3.2341642317175863,0.5726750581897795,-0.7528380751609802,3.608598470687866,-0.1534946709871292
1696685896.699522,-2.1173794961720707,3.2341642317175863,0.5726750581897795,-0.8700171709060669,3.638425827026367,-0.21208421885967255
1696685896.703522,-2.163160898759961,2.963964188992977,0.7396424899250269,-0.9808046817779541,3.6725142002105713,-0.2664127051830292
1696685896.7084754,-2.4037376809865236,2.6883780989050865,1.041261142268777,-0.9808046817779541,3.6725142002105713,-0.2664127051830292
1696685896.7095323,-2.4037376809865236,2.6883780989050865,1.041261142268777,-1.0947879552841187,3.728973388671875,-0.329263299703598
