time,linear_acceleration_x,linear_acceleration_y,linear_acceleration_z,angular_velocity_x,angular_velocity_y,angular_velocity_z
1697447116.645145,0.06486737878061831,0.011512431511655449,9.827700179219246,0.03439242020249367,0.002678073476999998,0.026535024866461754
1697447116.6501617,0.01639295251108706,0.09230314196087419,10.026983931660652,0.02587030455470085,0.0016128089046105742,0.03186134621500969
1697447116.655148,-0.006048911502584815,-0.0190085035469383,9.97850950539112,0.021609246730804443,-0.00690930662676692,0.037187669426202774
1697447116.6601613,-0.02669542639516294,-0.08902711926959454,9.781918192207813,0.013087130151689053,-0.003713513258844614,0.03186134621500969
1697447116.665143,-0.00874193518422544,0.046521739372983574,9.868993209004401,0.004565014503896236,-0.004778777714818716,0.03399187698960304
1697447116.6701663,-0.06529543249867856,0.0384426683280617,9.929137404561043,-0.0007613079505972564,-0.005844042170792818,0.037187669426202774
1697447116.6751485,-0.11287218420766294,-0.16173875867389143,9.763964700996876,-0.008218158967792988,-0.002648248802870512,0.02440449595451355
1697447116.6801577,-0.052727988651022316,-0.0010550123360008,9.781918192207813,-0.011413952335715294,0.002678073476999998,0.025469759479165077
1697447116.6851428,-0.10389543860219419,0.0707589525077492,9.82051878273487,-0.011413952335715294,0.0005475444486364722,0.023339230567216873
1697447116.6901617,-0.19456056921742856,-0.1482736402656883,9.69394608527422,-0.011413952335715294,-0.0005177200073376298,0.01694764383137226
1697447116.6951456,-0.11646288244985044,-0.06389223157428205,9.744215860664845,-0.00928342342376709,0.0037433379329741,0.00736026419326663
1697447116.7001631,-0.08324892370961606,0.07165662706829608,9.871686232686043,-0.00928342342376709,0.004808602388948202,0.006294999737292528
1697447116.7051692,-0.15955126135610043,-0.11685503064654768,9.776532144844532,-0.0146097457036376,-0.0015829844633117318,0.006294999737292528
1697447116.7101347,-0.07786287634633482,-0.2057248121406883,9.633801889717578,-0.008218158967792988,0.0037433379329741,0.000968677457422018
1697447116.715178,-0.00515123694203794,-0.04234804212115705,9.764862375557422,-0.008218158967792988,-0.003713513258844614,-0.002227115910500288
1697447116.7201314,-0.11376985876820982,-0.0656875806953758,9.979407179951668,-0.017805539071559906,-0.00690930662676692,0.003099206369370222
1697447116.7251735,-0.07337450354360044,-0.18597597180865705,9.79448563605547,-0.015675010159611702,-0.004778777714818716,-0.00329238036647439
1697447116.7301266,-0.021309379031881688,-0.0944131666328758,9.6706065467,-0.01674027554690838,-0.00797457154840231,-0.002227115910500288
1697447116.735175,-0.06888613074086607,-0.037859669318422676,9.858221114277839,-0.026327654719352722,-0.004778777714818716,-0.004357644822448492
1697447116.7401314,-0.11376985876820982,-0.1698178297188133,9.835779250264167,-0.024197125807404518,-0.014366159215569496,-0.001161851454526186
1697447116.7451713,-0.05362566321156919,-0.16443178235553205,9.62751816779375,-0.015675010159611702,-0.010105100460350513,-0.007553438190370798
1697447116.7501311,-0.04464891760610044,0.0007403367850929498,9.772043772041798,-0.011413952335715294,-0.010105100460350513,-0.001161851454526186
1697447116.7551713,-0.07247682898305356,-0.061199207892641425,9.766657724678517,-0.01674027554690838,-0.01330089382827282,-9.658699855208397e-05
1697447116.760132,-0.09491869299672544,-0.19585039197467266,9.60148560553789,-0.00928342342376709,-0.005844042170792818,-0.004357644822448492
1697447116.7651768,-0.01412798254750669,-0.08184572278521955,9.752294931709766,-0.005022365599870682,0.0005475444486364722,-0.004357644822448492
1697447116.77013,-0.054523337772116064,0.011512431511655449,9.825007155537605,-0.0007613079505972564,0.0016128089046105742,-0.001161851454526186
1697447116.775174,-0.08504427283070981,-0.1805899244453758,9.595201883614063,0.0013692209031432867,-0.002648248802870512,-0.005422909278422594
1697447116.7801309,-0.029388450076803563,-0.11146898328326642,9.616746073067189,0.0034997498150914907,0.002678073476999998,-0.006488173734396696
1697447116.7851727,-0.06080705969594419,0.08781476915813982,9.880662978291511,0.0077608078718185425,0.002678073476999998,0.000968677457422018
1697447116.7901344,-0.10569078772328794,-0.08453874646686017,9.8268025046587,0.009891336783766747,-0.004778777714818716,-0.004357644822448492
1697447116.795172,-0.01771868078969419,-0.12134340344928204,9.652653055489063,0.014152394607663155,-0.003713513258844614,-0.001161851454526186
1697447116.8001323,0.018188301632180808,0.022284526238217948,9.749601908028126,0.009891336783766747,-0.0015829844633117318,-9.658699855208397e-05
1697447116.8051705,-0.06260240881703794,-0.0441433912422508,9.86360716164112,0.008826072327792645,-0.010105100460350513,-9.658699855208397e-05
1697447116.8101318,-0.06798845618031919,-0.19944109021686016,9.736136789619922,0.014152394607663155,-0.009039836004376411,-0.001161851454526186
1697447116.8151746,-0.03297914831899106,0.0420333665702492,9.763964700996876,0.015217659994959831,-0.00690930662676692,-0.002227115910500288
1697447116.8201265,-0.06350008337758481,-0.1294224744942039,9.740625162422656,0.010956601239740849,-0.00690930662676692,-0.001161851454526186
1697447116.8251753,-0.016821006229147315,-0.10428758679889143,9.612257700264454,0.01628292351961136,-0.00690930662676692,0.004164470825344324
1697447116.830158,0.009211556026712059,0.024977549919858573,9.765760050117969,0.01628292351961136,-0.0015829844633117318,-0.001161851454526186
1697447116.835146,-0.013230307986959814,-0.0836410719063133,9.760374002754688,0.023739775642752647,-0.0005177200073376298,0.00736026419326663
1697447116.840166,-0.000662864139303565,-0.17161317883990704,9.650857706367969,0.024805039167404175,0.0005475444486364722,0.005229735281318426
1697447116.845148,0.05948133141733706,0.026772899040952324,9.81782575905323,0.024805039167404175,0.0016128089046105742,0.006294999737292528
1697447116.85016,0.045118538448587056,0.0133077806327492,9.880662978291511,0.023739775642752647,0.005873866844922304,0.008425528183579445
1697447116.855143,0.03614179284311831,-0.1725108534004539,9.683173990547656,0.028000833466649055,0.0016128089046105742,0.015882380306720734
1697447116.860163,0.09718366296030581,-0.0728689771797508,9.727160044014454,0.03652295097708702,-0.0005177200073376298,0.019078172743320465
1697447116.8651392,0.07115110070444643,0.15244733751751482,9.972225783467293,0.038653478026390076,-0.002648248802870512,0.019078172743320465
1697447116.87016,-0.004253562381491065,-0.11146898328326642,9.90400251686573,0.035457685589790344,-0.0005177200073376298,0.030796082690358162
1697447116.8751457,0.07115110070444643,-0.16712480603717267,9.708308878242969,0.02693556807935238,-0.003713513258844614,0.028665553778409958
1697447116.8801587,0.058583656856790185,0.04293104113079607,9.728057718575,0.024805039167404175,0.0037433379329741,0.03186134621500969
1697447116.8851407,-0.06170473425649106,-0.02798524915240705,9.804360056221485,0.020543981343507767,0.0005475444486364722,0.03825293481349945
1697447116.890162,-0.07068147986195981,-0.16892015515826642,9.716387949287892,0.02267451025545597,0.010134924203157425,0.037187669426202774
1697447116.8951452,-0.024002402713522313,0.03754499376751482,9.648164682686328,0.013087130151689053,0.012265453115105629,0.029730817303061485
1697447116.900163,-0.10030474036000668,0.0635775560233742,9.718183298408984,0.014152394607663155,0.015461246483027935,0.032926611602306366
1697447116.9051452,-0.11825823157094419,-0.1841806226875633,9.603280954658985,0.009891336783766747,0.01865703985095024,0.030796082690358162
1697447116.9101624,-0.08235124914906919,-0.043245716681703926,9.527876291573047,0.015217659994959831,0.019722305238246918,0.012686586007475853
1697447116.915144,-0.10389543860219419,0.0851217454764992,9.664322824776173,0.021609246730804443,0.023983363062143326,0.008425528183579445
1697447116.9201624,-0.14249544470570982,-0.05760850965045392,9.605973978340625,0.020543981343507767,0.015461246483027935,-0.004357644822448492
1697447116.9251459,-0.06170473425649106,-0.0764596754219383,9.488378610908985,0.015217659994959831,0.015461246483027935,-0.00329238036647439
1697447116.9301643,-0.04285356848500669,0.05549848497845232,9.71100190192461,0.018413452431559563,0.017591776326298714,-0.024597670882940292
1697447116.935146,-0.031183799197897315,0.0707589525077492,9.878867629170417,0.01628292351961136,0.011200188659131527,-0.01820608414709568
1697447116.9401622,-0.011434958865866065,-0.045041065802797674,9.67329957038164,0.01628292351961136,0.011200188659131527,-0.027793463319540024
1697447116.9451747,0.04601621300913394,0.05819150866009295,9.690355387032032,0.013087130151689053,0.011200188659131527,-0.029923994094133377
1697447116.9501328,0.03075574547983706,0.15244733751751482,9.901309493184089,0.0056302789598703384,0.011200188659131527,-0.019271347671747208
1697447116.9551747,0.006518532345071435,-0.03157594739459455,9.818723433613776,0.0013692209031432867,0.013330717571079731,-0.0150102898478508
1697447116.9601345,0.07025342614389955,-0.043245716681703926,9.67689026862383,0.0034997498150914907,0.011200188659131527,-0.011814495548605919
1697447116.9651735,0.10167203576304018,0.1569357103202492,9.761271677315236,-0.007152894511818886,0.020787568762898445,-0.002227115910500288
1697447116.970131,0.05589063317514956,0.026772899040952324,9.789099588692189,-0.00395710114389658,0.01865703985095024,0.012686586007475853
1697447116.9751747,0.04422086388804018,-0.09890153943561017,9.688560037910937,-0.008218158967792988,0.01865703985095024,0.012686586007475853
1697447116.9801311,0.07743482262827456,0.07704267443157732,9.692150736153126,-0.011413952335715294,0.023983363062143326,0.019078172743320465
1697447116.9851723,0.04332318932749331,0.1066659349296242,9.755885629951953,-0.005022365599870682,0.023983363062143326,0.025469759479165077
1697447116.9901311,0.031653420040383934,-0.09172014295123518,9.73075074225664,-0.006087630055844784,0.021852834150195122,0.026535024866461754
1697447116.9951763,0.04422086388804018,0.0133077806327492,9.718183298408984,-0.0028918369207531214,0.021852834150195122,0.028665553778409958
1697447117.0001314,0.015495277950540185,0.09320081652142108,9.803462381660937,0.0024344853591173887,0.028244420886039734,0.032926611602306366
1697447117.0051768,-0.009639609744772315,-0.11326433240436017,9.798974008858204,-0.0018265724647790194,0.025048626586794853,0.03399187698960304
1697447117.0101337,0.0029278341028839347,-0.10069688855670392,9.67329957038164,0.0066955434158444405,0.025048626586794853,0.028665553778409958
1697447117.0151746,-0.05003496496938169,0.06088453234173357,9.804360056221485,0.0024344853591173887,0.030374949797987938,0.028665553778409958
1697447117.0201352,-0.09671404211781919,0.021386851677671074,9.94439787209034,0.0024344853591173887,0.027179155498743057,0.032926611602306366
1697447117.0251768,-0.08145357458852232,-0.15814806043170393,9.702025156319142,-0.0007613079505972564,0.028244420886039734,0.030796082690358162
1697447117.0301335,-0.05362566321156919,-0.04234804212115705,9.649062357246876,0.0013692209031432867,0.028244420886039734,0.026535024866461754
1697447117.0351794,-0.10299776404164732,0.030363597283139823,9.838472273945808,-0.0007613079505972564,0.025048626586794853,0.030796082690358162
1697447117.040131,-0.17301637976430356,-0.1294224744942039,9.781918192207813,0.0066955434158444405,0.021852834150195122,0.025469759479165077
1697447117.0451777,-0.1353140482213348,-0.11236665784381329,9.652653055489063,0.0034997498150914907,0.016526510939002037,0.022273967042565346
1697447117.050135,-0.07516985266469418,0.06627057970501482,9.763964700996876,0.0077608078718185425,0.017591776326298714,0.018012909218668938
1697447117.055169,-0.1317233499791473,-0.05760850965045392,9.810644362568855,0.0034997498150914907,0.009069659747183323,0.022273967042565346
1697447117.060134,-0.08414659827016294,-0.13839922009967268,9.758578653633593,0.0034997498150914907,0.0037433379329741,0.01375185139477253
1697447117.0651698,-0.06529543249867856,0.0240798753593117,9.845653670430183,0.0066955434158444405,-0.003713513258844614,0.004164470825344324
1697447117.0701334,-0.12005358069203793,0.023182200798764825,9.87796995460987,0.0003039565053768456,-0.004778777714818716,0.009490793570876122
1697447117.0751717,-0.09132799475453794,-0.1805899244453758,9.841165297627448,-0.0028918369207531214,-0.00797457154840231,0.005229735281318426
1697447117.0801318,-0.03477449744008482,-0.0010550123360008,9.793587961494922,-0.0028918369207531214,-0.00690930662676692,-0.006488173734396696
1697447117.0851758,-0.07068147986195981,0.11923337877728045,9.926444380879403,-0.013544481247663498,-0.004778777714818716,0.003099206369370222
1697447117.090161,-0.0787605509068817,-0.0728689771797508,9.871686232686043,-0.018870804458856583,-0.00690930662676692,0.00203394191339612
1697447117.0951426,-0.04464891760610044,-0.09710619031451642,9.644573984444142,-0.01993606798350811,-0.0015829844633117318,0.00203394191339612
1697447117.1001608,-0.07157915442250669,0.021386851677671074,9.686764688789845,-0.03058871254324913,0.002678073476999998,0.000968677457422018
1697447117.1051435,-0.09043032019399107,-0.07825502454303204,9.855528090596199,-0.026327654719352722,0.0005475444486364722,0.00203394191339612
1697447117.1101606,-0.1353140482213348,-0.16532945691607892,9.626620493233204,-0.024197125807404518,0.008004395291209221,-0.002227115910500288
1697447117.1151454,-0.09671404211781919,0.0133077806327492,9.609564676582814,-0.021001333370804787,0.011200188659131527,-0.001161851454526186
1697447117.1201622,-0.06978380530141294,0.05819150866009295,9.812439711689949,-0.01674027554690838,0.015461246483027935,0.000968677457422018
1697447117.1251447,-0.09491869299672544,-0.1410922437813133,9.727160044014454,-0.022066596895456314,0.015461246483027935,-0.008618703112006187
1697447117.130165,-0.09312334387563169,-0.10338991223834455,9.700229807198047,-0.0146097457036376,0.012265453115105629,-0.002227115910500288
1697447117.1351469,-0.018616355350241063,0.0025356859061866997,9.849244368672371,-0.006087630055844784,0.010134924203157425,-0.004357644822448492
1697447117.1401649,-0.07337450354360044,-0.037859669318422676,9.837574599385261,-0.011413952335715294,-0.0005177200073376298,-0.00329238036647439
1697447117.1451406,-0.04823961584828794,-0.12583177625201641,9.78820191413164,-0.007152894511818886,-0.002648248802870512,-0.002227115910500288
1697447117.1501606,0.019085976192727686,0.011512431511655449,9.887844374775886,-0.008218158967792988,-0.005844042170792818,-0.005422909278422594
1697447117.1551483,-0.04464891760610044,-0.037859669318422676,9.950681594014167,-0.012479216791689396,-0.01969248056411743,0.00203394191339612
1697447117.160163,-0.09581636755727231,-0.1761015516426414,9.778327493965625,-0.017805539071559906,-0.017561951652169228,0.000968677457422018
1697447117.165148,-0.06080705969594419,-0.055813160529360174,9.814235060811043,-0.022066596895456314,-0.02075774595141411,-0.006488173734396696
1697447117.1701605,-0.10030474036000668,0.010614756951108575,9.922853682637214,-0.028458183631300926,-0.022888274863362312,0.00203394191339612
1697447117.1751478,-0.1317233499791473,-0.1554550367500633,9.864504836201668,-0.03484977036714554,-0.02714933268725872,0.003099206369370222
1697447117.1801605,-0.08594194739125668,-0.1554550367500633,9.577248392403126,-0.029523449018597603,-0.022888274863362312,-0.004357644822448492
1697447117.1851435,-0.06978380530141294,0.007024058708921074,9.666118173897265,-0.03804556652903557,-0.02075774595141411,-0.00329238036647439
1697447117.1901605,-0.10299776404164732,-0.08184572278521955,9.82051878273487,-0.035915035754442215,-0.017561951652169228,-0.002227115910500288
1697447117.1951485,-0.11466753332875669,-0.1841806226875633,9.649960031807423,-0.03058871254324913,-0.017561951652169228,-0.010749232023954391
1697447117.2001665,-0.047341941287741066,-0.10069688855670392,9.599690256416798,-0.026327654719352722,-0.012235629372298717,-0.011814495548605919
1697447117.2051823,-0.000662864139303565,-0.08453874646686017,9.758578653633593,-0.024197125807404518,-0.015431422740221024,-0.011814495548605919
1697447117.2101653,-0.03926287024281919,-0.16443178235553205,9.686764688789845,-0.008218158967792988,-0.014366159215569496,-0.016075555235147476
1697447117.2151701,-0.02310472815297544,-0.11685503064654768,9.660732126533984,-0.0028918369207531214,-0.018627217039465904,-0.02140187658369541
1697447117.220137,0.06037900597788393,-0.032473621955141425,9.767555399239063,-0.0028918369207531214,-0.02075774595141411,-0.019271347671747208
1697447117.2251737,0.03793714196421206,-0.09890153943561017,9.740625162422656,-0.0018265724647790194,-0.021823009476065636,-0.0150102898478508
1697447117.230129,0.04691388756968081,-0.16173875867389143,9.644573984444142,0.0003039565053768456,-0.01969248056411743,-0.019271347671747208
1697447117.2351708,0.04152784020639956,-0.01721315442584455,9.79448563605547,0.0066955434158444405,-0.014366159215569496,-0.010749232023954391
1697447117.2401326,0.03255109460093081,-0.0333712965156883,9.856425765156745,0.0056302789598703384,-0.009039836004376411,-0.006488173734396696
1697447117.2451713,0.03344876916147768,-0.18148759900592268,9.714592600166798,0.008826072327792645,-0.00690930662676692,-0.007553438190370798
1697447117.250138,0.03793714196421206,-0.04234804212115705,9.62482514411211,0.013087130151689053,0.004808602388948202,-0.005422909278422594
1697447117.25517,0.02357434899546206,0.049214763054624196,9.82949552834034,0.01202186569571495,0.013330717571079731,0.008425528183579445
1697447117.260132,-0.027593100955709816,-0.12134340344928204,9.78281586676836,0.008826072327792645,0.012265453115105629,0.004164470825344324
1697447117.2651696,-0.03926287024281919,-0.12493410169146954,9.561090250313281,0.018413452431559563,0.019722305238246918,0.000968677457422018
1697447117.270132,0.02177899987436831,0.02587522448040545,9.660732126533984,0.014152394607663155,0.020787568762898445,0.008425528183579445
1697447117.2751722,-0.03926287024281919,-0.07107362805865705,9.828597853779792,0.01202186569571495,0.017591776326298714,0.00736026419326663
1697447117.2801383,-0.06260240881703794,-0.11057130872271954,9.756783304512501,0.017348188906908035,0.021852834150195122,-0.002227115910500288
1697447117.2851737,-0.00515123694203794,0.021386851677671074,9.68496933966875,0.01202186569571495,0.025048626586794853,-9.658699855208397e-05
1697447117.290135,-0.00335588782094419,0.012410106072202325,9.798076334297656,0.01202186569571495,0.01865703985095024,-0.001161851454526186
1697447117.2951741,0.004723183223977685,-0.0944131666328758,9.687662363350391,0.009891336783766747,0.01865703985095024,0.000968677457422018
1697447117.3001301,0.011904579708352684,0.03305662096478045,9.861811812520028,0.010956601239740849,0.021852834150195122,-0.005422909278422594
1697447117.3051794,0.00382550866343081,-0.043245716681703926,9.8268025046587,0.0066955434158444405,0.019722305238246918,-9.658699855208397e-05
1697447117.3101323,-0.031183799197897315,-0.08812944470904767,9.67329957038164,0.004565014503896236,0.017591776326298714,-0.001161851454526186
1697447117.3151906,-0.00874193518422544,0.05101011217571795,9.836676924824715,0.008826072327792645,0.01865703985095024,0.000968677457422018
1697447117.3201299,-0.06260240881703794,-0.014520130744203925,9.882458327412605,0.0066955434158444405,0.02291809767484665,0.003099206369370222
1697447117.3251715,-0.11107683508656918,-0.14737596570514142,9.669708872139454,0.0034997498150914907,0.019722305238246918,0.003099206369370222
1697447117.330136,-0.041955893924459815,-0.0046457105781883,9.659834451973438,0.0034997498150914907,0.025048626586794853,0.004164470825344324
1697447117.3351777,-0.08235124914906919,0.07165662706829608,9.851937392354012,0.010956601239740849,0.02611389197409153,0.005229735281318426
1697447117.3401334,-0.18468614905141292,-0.07825502454303204,9.793587961494922,0.0013692209031432867,0.023983363062143326,0.005229735281318426
1697447117.345175,-0.11287218420766294,-0.0764596754219383,9.651755380928517,0.0066955434158444405,0.017591776326298714,-9.658699855208397e-05
1697447117.350134,-0.06439775793813168,0.08063337267376482,9.736136789619922,0.004565014503896236,0.017591776326298714,0.000968677457422018
1697447117.3551502,-0.12184892981313168,0.03215894640423357,9.865402510762214,-0.0028918369207531214,0.012265453115105629,0.004164470825344324
1697447117.3601644,-0.11556520788930356,-0.0656875806953758,9.75409028083086,-0.00395710114389658,0.009069659747183323,0.000968677457422018
1697447117.3651493,-0.06798845618031919,0.0384426683280617,9.756783304512501,0.0003039565053768456,0.004808602388948202,-0.004357644822448492
1697447117.3701649,-0.07516985266469418,0.014205455193296074,9.878867629170417,-0.007152894511818886,-0.0005177200073376298,-9.658699855208397e-05
1697447117.3751452,-0.10030474036000668,-0.043245716681703926,9.805258315205574,-0.017805539071559906,-0.005844042170792818,-0.004357644822448492
1697447117.3801687,-0.05003496496938169,0.041135692009702324,9.753192606270312,-0.021001333370804787,-0.01330089382827282,-0.008618703112006187
1697447117.3851469,-0.02849077551625669,0.08332639635540545,9.967737410664558,-0.03058871254324913,-0.014366159215569496,-0.005422909278422594
1697447117.3901627,-0.03926287024281919,-0.028882923712953923,9.836676924824715,-0.039110828191041946,-0.0164966881275177,-0.002227115910500288
1697447117.3951495,-0.03746752112172544,-0.10069688855670392,9.605076303780079,-0.046567682176828384,-0.015431422740221024,-0.006488173734396696
1697447117.4001644,-0.002458213260397315,0.033954295525327326,9.804360056221485,-0.04763294383883476,-0.0164966881275177,-0.00329238036647439
1697447117.4051473,-0.03926287024281919,0.05101011217571795,9.901309493184089,-0.0550897978246212,-0.01330089382827282,0.003099206369370222
1697447117.4101646,-0.05542101233266294,-0.10069688855670392,9.66791352301836,-0.04869820922613144,-0.0164966881275177,0.004164470825344324
1697447117.4151433,-0.020411704471334814,-0.012724781623110176,9.649062357246876,-0.05295926705002785,-0.012235629372298717,0.008425528183579445
1697447117.420161,-0.022207053592428565,0.0007403367850929498,9.723569345772265,-0.046567682176828384,-0.004778777714818716,0.010556057095527649
1697447117.4251475,-0.10928148596547543,-0.17071550427936016,9.726262369453906,-0.03804556652903557,-0.004778777714818716,0.012686586007475853
1697447117.4301627,-0.033876822879537936,-0.1087759596016258,9.693048410713672,-0.03058871254324913,-0.005844042170792818,0.00736026419326663
1697447117.4351466,-0.01771868078969419,0.07345197618938983,9.753192606270312,-0.028458183631300926,-0.002648248802870512,0.008425528183579445
1697447117.4401588,-0.058114036014303566,-0.06299455701373517,9.772043772041798,-0.035915035754442215,-0.012235629372298717,0.006294999737292528
1697447117.4451444,-0.004253562381491065,-0.1913620191719383,9.702922830879688,-0.025262391194701195,-0.010105100460350513,0.00203394191339612
1697447117.4501603,0.026267372677102684,-0.0872317701485008,9.749601908028126,-0.01993606798350811,-0.009039836004376411,-0.005422909278422594
1697447117.4551466,-0.002458213260397315,-0.025292225470766424,9.836676924824715,-0.021001333370804787,-0.014366159215569496,-0.005422909278422594
1697447117.4601655,-0.00874193518422544,-0.16173875867389143,9.707411203682422,-0.018870804458856583,-0.010105100460350513,-0.005422909278422594
1697447117.465171,-0.01233263342641294,-0.07915269910357892,9.660732126533984,-0.017805539071559906,-0.00690930662676692,-0.012879760935902596
1697447117.4701397,0.00023481042124330996,0.039340342888608576,9.883356001973151,-0.02313186228275299,-0.002648248802870512,-0.008618703112006187
1697447117.4751754,-0.013230307986959814,-0.1482736402656883,9.765760050117969,-0.021001333370804787,-0.005844042170792818,-0.005422909278422594
1697447117.4801338,-0.013230307986959814,-0.20123643933795393,9.597894907295704,-0.01993606798350811,-0.0015829844633117318,-0.007553438190370798
1697447117.4851675,-0.00694658606313169,-0.030678272834047674,9.75409028083086,-0.017805539071559906,0.004808602388948202,-0.00329238036647439
1697447117.490134,-0.057216361453756685,-0.08184572278521955,9.833983901143073,-0.018870804458856583,0.006939131300896406,0.004164470825344324
1697447117.4951758,-0.059909385135397314,-0.23983644544146954,9.630211191475391,-0.01674027554690838,0.008004395291209221,0.000968677457422018
1697447117.500134,0.010109230587258934,-0.08184572278521955,9.664322824776173,-0.0018265724647790194,0.011200188659131527,0.000968677457422018
1697447117.5051758,0.008313881466165185,0.06088453234173357,9.837574599385261,-0.005022365599870682,0.010134924203157425,0.011621322482824326
1697447117.5101314,-0.05362566321156919,-0.17520387708209453,9.736136789619922,-0.005022365599870682,0.010134924203157425,0.011621322482824326
1697447117.5111787,-0.05362566321156919,-0.17520387708209453,9.736136789619922,-0.0007613079505972564,0.009069659747183323,0.00736026419326663
1697447117.515175,0.03793714196421206,-0.20841783582232892,9.690355387032032,0.0077608078718185425,0.004808602388948202,0.009490793570876122
1697447117.520134,0.01639295251108706,-0.032473621955141425,9.784611215889454,0.0077608078718185425,0.004808602388948202,0.009490793570876122
1697447117.5211785,0.01639295251108706,-0.032473621955141425,9.784611215889454,0.017348188906908035,0.008004395291209221,0.014817114919424057
1697447117.5251782,-0.02490007727406919,-0.12403642713092267,9.781020517647265,0.024805039167404175,0.006939131300896406,0.02120870165526867
1697447117.5301332,-0.00874193518422544,-0.2093155103828758,9.702922830879688,0.024805039167404175,0.006939131300896406,0.02120870165526867
1697447117.5311818,-0.00874193518422544,-0.2093155103828758,9.702922830879688,0.023739775642752647,0.012265453115105629,0.01694764383137226
1697447117.5351741,-0.02310472815297544,0.011512431511655449,9.810644362568855,0.020543981343507767,0.008004395291209221,0.02120870165526867
1697447117.540137,-0.08683962195180356,-0.03426897107623517,9.881560652852059,0.020543981343507767,0.008004395291209221,0.02120870165526867
1697447117.5411742,-0.08683962195180356,-0.03426897107623517,9.881560652852059,0.015217659994959831,0.004808602388948202,0.023339230567216873
1697447117.5451725,-0.09043032019399107,-0.18866899549029767,9.719978647530079,0.01947871781885624,0.004808602388948202,0.02440449595451355
1697447117.5501351,-0.06170473425649106,-0.055813160529360174,9.67958329230547,0.01947871781885624,0.004808602388948202,0.02440449595451355
1697447117.5511715,-0.06170473425649106,-0.055813160529360174,9.67958329230547,0.01628292351961136,0.012265453115105629,0.02014343813061714
1697447117.5551736,-0.1317233499791473,0.0348519700858742,9.82949552834034,0.013087130151689053,0.014395982027053833,0.023339230567216873
1697447117.5601304,-0.16763033240102232,-0.18687364636920392,9.643676309883594,0.013087130151689053,0.014395982027053833,0.023339230567216873
1697447117.561179,-0.16763033240102232,-0.18687364636920392,9.643676309883594,0.0077608078718185425,0.017591776326298714,0.02014343813061714
1697447117.5651743,-0.17032335608266294,-0.18597597180865705,9.500946054756641,0.01947871781885624,0.01865703985095024,0.008425528183579445
1697447117.570133,-0.1469838175084442,0.008819407830014824,9.688560037910937,0.01947871781885624,0.01865703985095024,0.008425528183579445
1697447117.5711765,-0.1469838175084442,0.008819407830014824,9.688560037910937,0.015217659994959831,0.017591776326298714,0.008425528183579445
1697447117.5751755,-0.18289079993031918,0.03754499376751482,9.835779250264167,0.01628292351961136,0.015461246483027935,0.00736026419326663
1697447117.5801358,-0.14518846838735044,-0.1195480543281883,9.671504221260548,0.01628292351961136,0.015461246483027935,0.00736026419326663
1697447117.5811737,-0.14518846838735044,-0.1195480543281883,9.671504221260548,0.013087130151689053,0.010134924203157425,-0.005422909278422594
1697447117.5851753,-0.06978380530141294,-0.009134083380922675,9.65624375373125,0.013087130151689053,0.006939131300896406,-0.009683966636657715
1697447117.5901308,-0.10838381140492856,0.035749644646421073,9.789099588692189,0.013087130151689053,0.006939131300896406,-0.009683966636657715
1697447117.591179,-0.10838381140492856,0.035749644646421073,9.789099588692189,0.015217659994959831,-0.005844042170792818,-0.010749232023954391
1697447117.596131,-0.0994070657994598,-0.13660387097857893,9.777429819405079,0.009891336783766747,-0.011170364916324615,-0.012879760935902596
1697447117.6011508,-0.031183799197897315,-0.00015733777545392513,9.83218855202198,0.0077608078718185425,-0.017561951652169228,-0.019271347671747208
1697447117.6061594,-0.02310472815297544,0.14526594103313983,9.939909499287605,-0.0007613079505972564,-0.018627217039465904,-0.01820608414709568
1697447117.6111414,-0.06709078161977232,-0.01003175794146955,9.848346694111823,-0.011413952335715294,-0.021823009476065636,-0.009683966636657715
1697447117.6161559,0.019085976192727686,-0.06030153333209455,9.746011209785937,-0.011413952335715294,-0.02395353838801384,-0.011814495548605919
1697447117.621142,0.04691388756968081,0.11115430773235857,9.859118788838387,-0.018870804458856583,-0.021823009476065636,-0.007553438190370798
1697447117.626162,-0.04285356848500669,0.022284526238217948,9.886049025654792,-0.029523449018597603,-0.01969248056411743,0.000968677457422018
1697447117.6311443,-0.01951402991078794,-0.13301317273639143,9.699332132637501,-0.03058871254324913,-0.010105100460350513,0.005229735281318426
1697447117.6361651,0.01100690514780581,0.0097170823905617,9.681378641426562,-0.029523449018597603,-0.010105100460350513,0.008425528183579445
1697447117.6411388,-0.06439775793813168,0.0779403489921242,9.807053664326668,-0.035915035754442215,-0.0005177200073376298,0.01375185139477253
1697447117.6461587,-0.06260240881703794,-0.1482736402656883,9.803462381660937,-0.03804556652903557,-0.0015829844633117318,0.01375185139477253
1697447117.6511424,0.007416206905618309,-0.10608293591998517,9.571862345039845,-0.021001333370804787,0.0037433379329741,0.014817114919424057
1697447117.6561606,0.01280225426889956,0.044726390251889826,9.685867014229297,-0.022066596895456314,0.0016128089046105742,0.02014343813061714
1697447117.6611419,-0.021309379031881688,-0.10159456311725079,9.81513273537159,-0.01993606798350811,0.0005475444486364722,0.02120870165526867
1697447117.6661627,0.0029278341028839347,-0.24163179456256328,9.700229807198047,-0.008218158967792988,-0.005844042170792818,0.01694764383137226
1697447117.6711392,0.01459760338999331,-0.007338734259828925,9.759476328194141,-0.008218158967792988,-0.0015829844633117318,0.01375185139477253
1697447117.6761608,0.020881325313821433,0.008819407830014824,9.851937392354012,-0.008218158967792988,-0.00797457154840231,0.01694764383137226
1697447117.6811457,-0.00515123694203794,-0.1509666639473289,9.775634470283984,-0.007152894511818886,-0.01330089382827282,0.015882380306720734
1697447117.686161,0.02357434899546206,0.017796153435483575,9.877072280049324,-0.011413952335715294,-0.004778777714818716,0.008425528183579445
1697447117.6911452,-0.025797751834616064,-0.1446829420235008,9.798076334297656,-0.00928342342376709,-0.009039836004376411,0.01694764383137226
1697447117.6961625,-0.004253562381491065,-0.1509666639473289,9.728057718575,-0.015675010159611702,-0.005844042170792818,0.011621322482824326
1697447117.7011428,0.006518532345071435,0.06267988146282732,9.850142043232918,-0.015675010159611702,-0.0015829844633117318,0.009490793570876122
1697447117.706163,-0.06798845618031919,-0.06838060437701643,9.864504836201668,-0.028458183631300926,0.0037433379329741,0.010556057095527649
1697447117.7111404,-0.047341941287741066,-0.29100389539264143,9.683173990547656,-0.02313186228275299,0.0005475444486364722,0.00736026419326663
1697447117.7161303,0.004723183223977685,-0.03606432019732892,9.652653055489063,-0.010348687879741192,0.0005475444486364722,0.004164470825344324
1697447117.7211714,-0.03567217200063169,0.03215894640423357,9.842062972187996,-0.017805539071559906,0.006939131300896406,0.00203394191339612
1697447117.7261305,-0.05003496496938169,-0.16443178235553205,9.809746688008309,-0.015675010159611702,0.0037433379329741,0.005229735281318426
1697447117.731175,-0.03297914831899106,-0.1446829420235008,9.623029794991016,-0.01674027554690838,0.002678073476999998,-0.00329238036647439
1697447117.7361305,-0.01412798254750669,-0.05760850965045392,9.710104227364063,-0.010348687879741192,0.0037433379329741,-0.004357644822448492
1697447117.7411723,-0.03028612463735044,-0.15276201306842266,9.86360716164112,-0.007152894511818886,0.0037433379329741,-0.004357644822448492
1697447117.7461326,-0.059909385135397314,-0.17161317883990704,9.748704233467578,-0.006087630055844784,-0.002648248802870512,-0.00329238036647439
1697447117.7511697,-0.036569846561178565,-0.04593874036334455,9.793587961494922,-0.0028918369207531214,0.004808602388948202,-0.009683966636657715
1697447117.7561324,-0.011434958865866065,-0.045041065802797674,9.867197859883309,-0.007152894511818886,-0.0015829844633117318,-0.005422909278422594
1697447117.7611713,-0.03477449744008482,-0.21739458142779766,9.711899576485157,-0.011413952335715294,-0.0005177200073376298,-0.006488173734396696
1697447117.766134,-0.02490007727406919,-0.10698061048053205,9.703820505440234,-0.007152894511818886,-0.002648248802870512,-0.005422909278422594
1697447117.771172,-0.01412798254750669,0.016000804314389824,9.867197859883309,-0.0028918369207531214,0.0037433379329741,-0.009683966636657715
1697447117.7761328,-0.04913729040883481,-0.1446829420235008,9.72536469489336,-0.0007613079505972564,0.006939131300896406,0.004164470825344324
1697447117.7811775,-0.02490007727406919,-0.17699922620318828,9.629313516914845,-0.005022365599870682,0.006939131300896406,-0.006488173734396696
1697447117.7861323,-0.020411704471334814,-0.015417805304750799,9.786406565010548,-0.006087630055844784,0.013330717571079731,-0.001161851454526186
1697447117.7911696,-0.06529543249867856,-0.10608293591998517,9.864504836201668,-0.00395710114389658,0.01865703985095024,0.00736026419326663
1697447117.7961378,-0.052727988651022316,-0.21470155774615704,9.738829813301564,-0.0028918369207531214,0.016526510939002037,0.010556057095527649
1697447117.8011756,0.004723183223977685,-0.037859669318422676,9.690355387032032,0.0034997498150914907,0.012265453115105629,0.009490793570876122
1697447117.8061318,-0.04105821936391294,-0.02798524915240705,9.837574599385261,0.0024344853591173887,0.013330717571079731,0.009490793570876122
1697447117.8111708,-0.04105821936391294,-0.2272690015938133,9.86630018532276,-0.0007613079505972564,0.002678073476999998,0.01375185139477253
1697447117.8161345,-0.009639609744772315,-0.12134340344928204,9.78820191413164,0.0034997498150914907,-0.0005177200073376298,0.012686586007475853
1697447117.8211792,-0.00694658606313169,-0.001952686896547675,9.821416457295417,0.0077608078718185425,-0.002648248802870512,0.012686586007475853
1697447117.8261313,0.00023481042124330996,-0.1375015455391258,9.862709487080574,-0.0007613079505972564,-0.010105100460350513,0.02014343813061714
1697447117.8311722,-0.025797751834616064,-0.19315736829303204,9.707411203682422,-0.0007613079505972564,-0.0164966881275177,0.01375185139477253
1697447117.8361347,-0.000662864139303565,-0.048631764044985176,9.747806558907032,-0.0028918369207531214,-0.010105100460350513,0.014817114919424057
1697447117.841172,-0.03028612463735044,-0.1087759596016258,9.804360056221485,-0.0018265724647790194,-0.0164966881275177,0.01694764383137226
1697447117.8461492,-0.054523337772116064,-0.18328294812701643,9.631108866035937,-0.007152894511818886,-0.01330089382827282,0.01375185139477253
1697447117.8511426,-0.08324892370961606,-0.11416200696490705,9.60148560553789,-0.007152894511818886,-0.004778777714818716,0.010556057095527649
1697447117.8561583,-0.09222566931508482,-0.04145036756061017,9.777429819405079,-0.006087630055844784,-0.005844042170792818,0.011621322482824326
1697447117.8611465,-0.1281326517369598,-0.1662271314766258,9.681378641426562,-0.008218158967792988,-0.00797457154840231,0.00736026419326663
1697447117.8661602,-0.09132799475453794,-0.19585039197467266,9.509025125801562,-0.0028918369207531214,-0.0015829844633117318,-0.001161851454526186
1697447117.8711402,-0.06619310705922545,-0.0369619947578758,9.666118173897265,0.008826072327792645,-0.003713513258844614,-0.006488173734396696
1697447117.8761587,-0.09402101843617856,-0.09531084119342267,9.77114609748125,0.009891336783766747,0.0005475444486364722,-0.009683966636657715
1697447117.8811443,-0.10928148596547543,-0.24163179456256328,9.66522049933672,0.013087130151689053,-0.002648248802870512,-0.0150102898478508
1697447117.88616,-0.04823961584828794,-0.10787828504107892,9.640085611641407,0.01628292351961136,-0.004778777714818716,-0.02140187658369541
1697447117.8911421,0.006518532345071435,-0.009134083380922675,9.805258315205574,0.014152394607663155,-0.00690930662676692,-0.02140187658369541
1697447117.8961601,-0.033876822879537936,-0.1509666639473289,9.816928084492684,0.014152394607663155,-0.010105100460350513,-0.026728199794888496
1697447117.901145,0.026267372677102684,-0.1051852613594383,9.750499582588672,0.018413452431559563,-0.003713513258844614,-0.024597670882940292
1697447117.9061573,0.03255109460093081,-0.009134083380922675,9.781918192207813,0.015217659994959831,-0.005844042170792818,-0.016075555235147476
1697447117.9111416,0.03883481652475893,-0.10428758679889143,9.864504836201668,0.01202186569571495,-0.0015829844633117318,-0.011814495548605919
1697447117.916159,0.035244118282571436,-0.11146898328326642,9.729853067696094,0.010956601239740849,-0.002648248802870512,-0.011814495548605919
1697447117.9211411,0.07025342614389955,0.0168984788749367,9.801667032539845,0.0077608078718185425,0.004808602388948202,-0.001161851454526186
1697447117.926161,0.045118538448587056,-0.0190085035469383,9.893230422139167,0.0003039565053768456,0.004808602388948202,0.005229735281318426
1697447117.9311445,0.009211556026712059,-0.14378526746295392,9.66791352301836,-0.00395710114389658,0.012265453115105629,0.009490793570876122
1697447117.9361582,0.02357434899546206,-0.07197130261920393,9.61943909674883,-0.0018265724647790194,0.019722305238246918,0.009490793570876122
1697447117.9411428,0.042425514766946434,-0.009134083380922675,9.862709487080574,-0.0018265724647790194,0.020787568762898445,0.010556057095527649
1697447117.9461586,-0.007844260623678564,-0.11057130872271954,9.812439711689949,-0.006087630055844784,0.016526510939002037,0.008425528183579445
1697447117.9511445,-0.002458213260397315,-0.12852479993365704,9.595201883614063,0.0024344853591173887,0.017591776326298714,-0.001161851454526186
1697447117.9561307,0.07474179894663394,0.023182200798764825,9.737932138741016,0.0056302789598703384,0.01865703985095024,-9.658699855208397e-05
1697447117.9611776,0.019085976192727686,-0.07376665174029767,9.837574599385261,-0.0018265724647790194,0.011200188659131527,-0.001161851454526186
1697447117.9661348,-0.05183031409047544,-0.2093155103828758,9.687662363350391,0.0024344853591173887,0.012265453115105629,-0.006488173734396696
1697447117.9711738,0.039732491085305806,-0.061199207892641425,9.733443765938281,0.0056302789598703384,0.013330717571079731,-0.008618703112006187
1697447117.9761343,0.017290627071633934,-0.015417805304750799,9.823211806416511,0.0077608078718185425,0.012265453115105629,-0.010749232023954391
1697447117.981167,-0.07247682898305356,-0.14647829114459454,9.798076334297656,0.004565014503896236,0.012265453115105629,-0.013945026323199272
1697447117.9861343,0.0029278341028839347,-0.053120136847719546,9.765760050117969,0.0056302789598703384,0.012265453115105629,-0.017140818759799004
1697447117.991172,0.027165047237649557,0.0133077806327492,9.830393202900886,-0.0018265724647790194,0.017591776326298714,-0.0150102898478508
1697447117.9961288,-0.000662864139303565,-0.08992479383014142,9.822314131855965,-0.0146097457036376,0.01865703985095024,-0.009683966636657715
1697447118.0011747,-0.02849077551625669,-0.10159456311725079,9.698434458076953,-0.011413952335715294,0.023983363062143326,-0.01820608414709568
1697447118.006131,-0.029388450076803563,0.001638011345639825,9.767555399239063,-0.017805539071559906,0.023983363062143326,-0.010749232023954391
1697447118.0111732,-0.05631868689320981,-0.03875734387896955,9.882458327412605,-0.021001333370804787,0.020787568762898445,-0.012879760935902596
1697447118.0161345,-0.036569846561178565,-0.12224107800982892,9.714592600166798,-0.028458183631300926,0.016526510939002037,-0.013945026323199272
1697447118.0211732,0.019085976192727686,-0.016315479865297675,9.701127481758594,-0.028458183631300926,0.015461246483027935,-0.01820608414709568
1697447118.026132,0.011904579708352684,-0.0010550123360008,9.93542112648487,-0.03058871254324913,0.015461246483027935,-0.019271347671747208
1697447118.0311723,-0.027593100955709816,-0.13121782361529769,9.833086226582527,-0.032719243317842484,0.010134924203157425,-0.0150102898478508
1697447118.0361347,0.009211556026712059,-0.13839922009967268,9.63918793708086,-0.035915035754442215,0.009069659747183323,-0.019271347671747208
1697447118.0411785,0.053197609493508935,0.005228709587827325,9.835779250264167,-0.03804556652903557,0.009069659747183323,-0.012879760935902596
1697447118.0461376,0.00562085778452456,-0.061199207892641425,9.900411818623542,-0.046567682176828384,0.009069659747183323,-0.005422909278422594
1697447118.0511756,-0.011434958865866065,-0.20841783582232892,9.757680979073047,-0.04550241678953171,0.015461246483027935,-0.008618703112006187
1697447118.0561314,0.0792301717493683,-0.11865037976764142,9.776532144844532,-0.04763294383883476,0.023983363062143326,0.003099206369370222
1697447118.061173,0.01998365075327456,-0.09620851575396955,9.761271677315236,-0.042306624352931976,0.028244420886039734,0.008425528183579445
1697447118.0661325,-0.08145357458852232,-0.24163179456256328,9.674197244942189,-0.03804556652903557,0.02930968441069126,0.003099206369370222
1697447118.0711818,-0.006048911502584815,-0.1554550367500633,9.690355387032032,-0.03165397793054581,0.031440213322639465,0.00736026419326663
1697447118.0761325,-0.03567217200063169,-0.09172014295123518,9.787304239571094,-0.03058871254324913,0.03357074409723282,0.009490793570876122
1697447118.0811718,-0.11107683508656918,-0.22547365247271955,9.728057718575,-0.018870804458856583,0.03357074409723282,0.009490793570876122
1697447118.0861332,-0.04644426672719419,-0.2766411024238914,9.590713510811328,-0.00928342342376709,0.030374949797987938,0.00203394191339612
1697447118.091176,-0.08773729651235043,-0.11685503064654768,9.707411203682422,-0.0028918369207531214,0.023983363062143326,-0.004357644822448492
1697447118.096133,-0.17122103064320982,-0.13121782361529769,9.8268025046587,-0.0007613079505972564,0.021852834150195122,-0.006488173734396696
1697447118.1011477,-0.1721187052037567,-0.25240388928912577,9.660732126533984,-0.0018265724647790194,0.023983363062143326,-0.0150102898478508
1697447118.106163,-0.09761171667836606,-0.14737596570514142,9.629313516914845,0.004565014503896236,0.021852834150195122,-0.01820608414709568
1697447118.111151,-0.10479311316274106,-0.09620851575396955,9.87796995460987,0.0056302789598703384,0.02291809767484665,-0.019271347671747208
1697447118.1161609,-0.12454195349477232,-0.20752016126178205,9.840267623066902,0.0066955434158444405,0.014395982027053833,-0.023532405495643616
1697447118.1211562,-0.10928148596547543,-0.2129062086250633,9.623927469551562,0.010956601239740849,0.021852834150195122,-0.026728199794888496
1697447118.126161,-0.09222566931508482,-0.06299455701373517,9.770248422920703,0.009891336783766747,0.02611389197409153,-0.023532405495643616
1697447118.1311488,-0.1290303262975067,-0.0980038648750633,9.82051878273487,0.010956601239740849,0.01865703985095024,-0.02566293440759182
1697447118.13616,-0.10748613684438169,-0.22906435071490705,9.712797251045703,0.01202186569571495,0.020787568762898445,-0.019271347671747208
1697447118.1411512,-0.036569846561178565,-0.09979921399615704,9.825904830098152,0.01628292351961136,0.01865703985095024,-0.01820608414709568
1697447118.1461613,-0.06350008337758481,-0.0225992017891258,9.862709487080574,0.015217659994959831,0.012265453115105629,-0.007553438190370798
1697447118.151146,-0.0886349710728973,-0.2093155103828758,9.68496933966875,0.021609246730804443,0.011200188659131527,-0.008618703112006187
1697447118.1561594,-0.03297914831899106,-0.12852479993365704,9.783713541328908,0.01628292351961136,0.0037433379329741,-0.009683966636657715
1697447118.1611416,-0.09671404211781919,0.04023801744915545,9.945295546650886,0.018413452431559563,0.0016128089046105742,0.006294999737292528
1697447118.1661656,-0.09043032019399107,-0.18507829724811017,9.78550889045,0.01628292351961136,-0.004778777714818716,0.005229735281318426
1697447118.1711457,-0.09850939123891293,0.014205455193296074,9.895923445820808,0.01628292351961136,-0.005844042170792818,0.00736026419326663
1697447118.1761606,-0.13351869910024106,-0.0656875806953758,9.953374617695808,0.008826072327792645,-0.012235629372298717,0.00736026419326663
1697447118.1811433,-0.1353140482213348,-0.23714342175982892,9.789099588692189,-0.0028918369207531214,-0.015431422740221024,0.011621322482824326
1697447118.1861646,-0.12454195349477232,-0.08274339734576643,9.752294931709766,-0.0018265724647790194,-0.018627217039465904,0.009490793570876122
1697447118.1911395,-0.1505745157506317,0.012410106072202325,9.940807173848151,-0.0028918369207531214,-0.017561951652169228,0.010556057095527649
1697447118.196164,-0.1568582376744598,-0.19944109021686016,9.82949552834034,-0.01993606798350811,-0.022888274863362312,0.012686586007475853
1697447118.2011423,-0.11736055701039731,-0.23355272351764142,9.657141428291798,-0.025262391194701195,-0.021823009476065636,0.011621322482824326
1697447118.2061632,-0.12184892981313168,-0.1051852613594383,9.760374002754688,-0.022066596895456314,-0.018627217039465904,0.00203394191339612
1697447118.2111433,-0.16314195959828792,-0.16084108411334455,9.750499582588672,-0.026327654719352722,-0.01969248056411743,0.004164470825344324
1697447118.2161636,-0.10120241492055357,-0.23624574719928204,9.617643747627735,-0.026327654719352722,-0.021823009476065636,-9.658699855208397e-05
1697447118.2211416,-0.052727988651022316,-0.08812944470904767,9.766657724678517,-0.026327654719352722,-0.017561951652169228,-0.006488173734396696
1697447118.2261388,-0.07157915442250669,-0.1087759596016258,9.779225168526173,-0.022066596895456314,-0.017561951652169228,-0.008618703112006187
1697447118.2311776,-0.06170473425649106,-0.28292482434771954,9.609564676582814,-0.015675010159611702,-0.0164966881275177,-0.013945026323199272
1697447118.2361362,0.015495277950540185,-0.16712480603717267,9.688560037910937,-0.013544481247663498,-0.01330089382827282,-0.02140187658369541
1697447118.2411711,-0.02310472815297544,-0.02439455091021955,9.905797865986823,-0.015675010159611702,-0.00797457154840231,-0.026728199794888496
1697447118.246137,-0.07068147986195981,-0.21111085950396954,9.772941446602344,-0.01674027554690838,-0.005844042170792818,-0.02246714197099209
1697447118.2511725,-0.00335588782094419,-0.22816667615436018,9.674197244942189,-0.012479216791689396,-0.0015829844633117318,-0.027793463319540024
1697447118.2561333,0.04601621300913394,-0.04234804212115705,9.849244368672371,-0.005022365599870682,0.0005475444486364722,-0.029923994094133377
1697447118.2611766,-0.04464891760610044,-0.10967363416217267,9.908490889668464,-0.010348687879741192,-0.0005177200073376298,-0.024597670882940292
1697447118.2661338,-0.00874193518422544,-0.20482713758014143,9.767555399239063,-0.018870804458856583,-0.0015829844633117318,-0.026728199794888496
1697447118.2711773,0.08461621911264956,-0.037859669318422676,9.709206552803517,-0.01674027554690838,-0.004778777714818716,-0.0288587287068367
1697447118.2761333,0.0029278341028839347,-0.0692782789375633,9.838472273945808,-0.018870804458856583,-0.005844042170792818,-0.019271347671747208
1697447118.2811725,-0.00515123694203794,-0.2488131910469383,9.844755995869637,-0.01993606798350811,-0.012235629372298717,-0.023532405495643616
1697447118.286129,0.07563947350718081,-0.13301317273639143,9.721773996651173,-0.015675010159611702,-0.0164966881275177,-0.02566293440759182
1697447118.2911727,0.06307202965952456,0.0097170823905617,9.837574599385261,-0.008218158967792988,-0.0164966881275177,-0.02140187658369541
1697447118.2961326,0.04063016564585269,-0.1590457349922508,9.804360056221485,-0.013544481247663498,-0.022888274863362312,-0.017140818759799004
1697447118.3011737,0.06307202965952456,-0.2775387769844383,9.671504221260548,-0.017805539071559906,-0.02714933268725872,-0.027793463319540024
1697447118.306136,0.042425514766946434,-0.10608293591998517,9.8268025046587,-0.011413952335715294,-0.01969248056411743,-0.023532405495643616
1697447118.3111718,0.04152784020639956,-0.13570619641803205,9.848346694111823,-0.013544481247663498,-0.021823009476065636,-0.02566293440759182
1697447118.316137,0.06756040246225893,-0.250608540168032,9.640983286201953,-0.018870804458856583,-0.0164966881275177,-0.0288587287068367
1697447118.3211734,0.08461621911264956,-0.14917131482623516,9.668811197578906,-0.010348687879741192,-0.00690930662676692,-0.030989255756139755
1697447118.326137,0.0792301717493683,-0.08902711926959454,9.831290877461432,-0.011413952335715294,-0.0005177200073376298,-0.029923994094133377
1697447118.3311753,0.058583656856790185,-0.3080597303062677,9.726262369453906,-0.018870804458856583,0.004808602388948202,-0.027793463319540024
1697447118.3361351,0.11244413048960268,-0.2703573805000633,9.649960031807423,-0.010348687879741192,0.006939131300896406,-0.030989255756139755
1697447118.341172,0.16002088219858707,-0.048631764044985176,9.818723433613776,-0.0028918369207531214,0.012265453115105629,-0.03311978653073311
1697447118.3461344,0.11064878136850893,-0.19854341565631328,9.865402510762214,-0.0028918369207531214,0.011200188659131527,-0.02246714197099209
1697447118.351175,0.13847669274546207,-0.30357133924029767,9.786406565010548,0.0003039565053768456,0.015461246483027935,-0.019271347671747208
1697447118.356134,0.20310926110483704,-0.09172014295123518,9.814235060811043,0.0077608078718185425,0.019722305238246918,-0.01820608414709568
1697447118.361152,0.14924878747202455,-0.12313875257037579,9.92105833351612,0.009891336783766747,0.02291809767484665,-0.005422909278422594
1697447118.3661613,0.1941325154993683,-0.3340922925621271,9.847449019551277,0.0056302789598703384,0.021852834150195122,0.004164470825344324
1697447118.3711445,0.1654069295618683,-0.1698178297188133,9.789099588692189,0.0077608078718185425,0.02611389197409153,0.005229735281318426
1697447118.3761652,0.1546348348353058,-0.10428758679889143,9.87258390724659,0.0056302789598703384,0.023983363062143326,0.018012909218668938
1697447118.3811455,0.1654069295618683,-0.2129062086250633,9.830393202900886,0.0056302789598703384,0.023983363062143326,0.02440449595451355
1697447118.3861666,0.17348600060679017,-0.18148759900592268,9.731648416817189,0.0034997498150914907,0.028244420886039734,0.02760028839111328
1697447118.3911417,0.12860227257944642,-0.0872317701485008,9.903104842305183,-0.0018265724647790194,0.02930968441069126,0.03825293481349945
1697447118.396161,0.09987668664194643,-0.19944109021686016,9.914774611592293,-0.007152894511818886,0.025048626586794853,0.03931820020079613
1697447118.401143,0.12231855065561831,-0.3628178784996271,9.643676309883594,-0.006087630055844784,0.021852834150195122,0.043579258024692535
1697447118.4061685,0.11872785241343081,-0.23624574719928204,9.695741434395313,0.0056302789598703384,0.023983363062143326,0.03931820020079613
1697447118.4111419,0.09179761559702455,-0.10967363416217267,9.905797865986823,0.004565014503896236,0.025048626586794853,0.04890557751059532
1697447118.4161603,0.1510441365931183,-0.25778993665240707,9.848346694111823,0.0024344853591173887,0.01865703985095024,0.049970842897892
1697447118.4211452,0.2156767049524933,-0.21739458142779766,9.761271677315236,0.0013692209031432867,0.016526510939002037,0.051036108285188675
1697447118.4261613,0.26056043297983705,-0.07017595349811018,9.873481581807136,0.0024344853591173887,0.014395982027053833,0.05955822393298149
1697447118.431143,0.17887204797007142,-0.2093155103828758,9.897718794941902,-0.006087630055844784,0.014395982027053833,0.0734066590666771
1697447118.4361608,0.20669995934702456,-0.25778993665240707,9.837574599385261,-0.0018265724647790194,0.015461246483027935,0.0734066590666771
1697447118.4411426,0.1797697225306183,-0.03965501843951642,9.833983901143073,-0.0028918369207531214,0.019722305238246918,0.08938562870025635
1697447118.446163,0.31531856290996074,0.057293834099546075,9.94978391945362,-0.012479216791689396,0.01865703985095024,0.10856039077043533
1697447118.4511464,0.23632321984507143,-0.07735734998248517,9.893230422139167,-0.0273929201066494,0.028244420886039734,0.13199621438980103
1697447118.456162,0.2632534566614777,0.04831708849407732,9.99287229835987,-0.03058871254324913,0.02611389197409153,0.15010571479797363
1697447118.4611452,0.24260694176889955,0.012410106072202325,9.996462996602059,-0.054024532437324524,0.023983363062143326,0.17673732340335846
1697447118.4661613,0.20221158654429017,-0.21111085950396954,9.904900191426277,-0.06361190974712372,0.01865703985095024,0.19165103137493134
1697447118.471144,0.22555112511850892,-0.18238527356646955,9.834881575703621,-0.07532982528209686,0.011200188659131527,0.2033689320087433
1697447118.4761353,0.16181623131968081,-0.02798524915240705,9.974021132588387,-0.08065614104270935,-0.004778777714818716,0.21828263998031616
1697447118.4811745,0.18246274621225894,-0.0800503736641258,10.106876967549324,-0.09450457990169525,-0.022888274863362312,0.22254370152950287
1697447118.486132,0.1294999471399933,-0.1626364332344383,9.952476943135261,-0.11154881119728088,-0.039932508021593094,0.22254370152950287
1697447118.491173,0.1375790181849152,-0.14198991834186017,9.862709487080574,-0.11687513440847397,-0.058042000979185104,0.21402157843112946
1697447118.4961333,0.11154645592905581,-0.20033876477740706,10.055709517598151,-0.13178884983062744,-0.06549885123968124,0.21402157843112946
1697447118.501175,0.05678830773569643,-0.45078998543322085,10.011723464131355,-0.12539725005626678,-0.08254308253526688,0.1937815546989441
1697447118.5061347,0.053197609493508935,-0.4418132398277521,9.926444380879403,-0.1285930573940277,-0.08999993652105331,0.1841941773891449
1697447118.5111752,0.1411697164271027,-0.2847201734688133,10.05930021584034,-0.13924570381641388,-0.09852205216884613,0.17567205429077148
1697447118.5161328,0.1510441365931183,-0.4023155591636896,10.018007186055183,-0.1520288735628128,-0.10704416781663895,0.15330150723457336
1697447118.5211706,0.07294644982554019,-0.5773620984703303,9.81782575905323,-0.15309414267539978,-0.11023996025323868,0.13625727593898773
1697447118.52613,0.0900022664759308,-0.4804132459312677,9.839369948506356,-0.14670254290103912,-0.10810942947864532,0.11814776808023453
1697447118.5311728,0.1438627401087433,-0.5091388318687677,9.87258390724659,-0.14989835023880005,-0.11556628346443176,0.1053645983338356
1697447118.5361326,0.09449063927866518,-0.6698225782066584,9.821416457295417,-0.14989835023880005,-0.12089260667562485,0.08192877471446991
1697447118.5411725,0.05409528405405581,-0.5710783765465021,9.766657724678517,-0.14137622714042664,-0.11556628346443176,0.06062348932027817
1697447118.5461323,0.05409528405405581,-0.5405574414879083,9.793587961494922,-0.1424414962530136,-0.11663154512643814,0.05316663533449173
1697447118.551179,0.06935575158335268,-0.7353528211265802,9.729853067696094,-0.1339193731546402,-0.10704416781663895,0.02760028839111328
1697447118.556136,0.06666272790171206,-0.7407388684898615,9.526978617012501,-0.11900566518306732,-0.09319572895765305,0.012686586007475853
1697447118.5611756,0.0900022664759308,-0.5746690747886896,9.667015848457813,-0.11474461108446121,-0.07934729009866714,-0.010749232023954391
1697447118.566136,0.09628598839975894,-0.7102179334312677,9.733443765938281,-0.10835301876068115,-0.05910726636648178,-0.02140187658369541
1697447118.57117,0.07563947350718081,-0.7811342237144708,9.503639078438281,-0.09024352580308914,-0.039932508021593094,-0.03844610974192619
1697447118.5761368,0.19233716637827455,-0.6823900220543146,9.465039072334767,-0.07639508694410324,-0.01330089382827282,-0.05442507565021515
1697447118.5811703,0.22555112511850892,-0.6087807080894708,9.655346079170704,-0.0646771788597107,0.013330717571079731,-0.05335981026291847
1697447118.5861325,0.13039762170054017,-0.7218877027183771,9.646369333565234,-0.049763474613428116,0.0388970673084259,-0.06507772207260132
1697447118.5911744,0.16002088219858707,-0.6267341993004083,9.460550699532032,-0.029523449018597603,0.06765920668840408,-0.06933877617120743
1697447118.5961347,0.21118833214975893,-0.543250465169549,9.572760019600391,-0.007152894511818886,0.08896449953317642,-0.06933877617120743
1697447118.6011727,0.19233716637827455,-0.6572551343590021,9.576350717842578,0.008826072327792645,0.1038782000541687,-0.06507772207260132
1697447118.606153,0.1438627401087433,-0.6805946729332208,9.470425119698048,0.021609246730804443,0.11346558481454849,-0.07359983772039413
1697447118.6111422,0.14655576379038393,-0.4956737134605646,9.59879258185625,0.04717559367418289,0.12305296212434769,-0.0661429837346077
1697447118.616161,0.15014646203257143,-0.5154225537925958,9.65893677741289,0.05356718227267265,0.12837928533554077,-0.06507772207260132
1697447118.6211464,0.08192319543100893,-0.6384039685875177,9.501843729317187,0.06421982496976852,0.12198770046234131,-0.0661429837346077
1697447118.6261675,0.08910459191538393,-0.4983667371422052,9.523387918770313,0.07700300216674805,0.11559611558914185,-0.06188192963600159
1697447118.6311426,0.10256971032358705,-0.42565509773790833,9.743318186104297,0.0791335254907608,0.10920452326536179,-0.06081666052341461
1697447118.636165,0.03255109460093081,-0.5396597669273615,9.718183298408984,0.07700300216674805,0.09535608440637589,-0.06507772207260132
1697447118.6411438,0.06307202965952456,-0.5190132520347833,9.534160013496875,0.0929819643497467,0.08683396875858307,-0.06081666052341461
1697447118.6461627,0.05678830773569643,-0.36102252937853335,9.67958329230547,0.09617775678634644,0.0804423838853836,-0.05442507565021515
1697447118.6511376,-0.01412798254750669,-0.42206439949572083,9.842960646748542,0.0929819643497467,0.06339815258979797,-0.06188192963600159
1697447118.6561627,0.037039467403665184,-0.3242178723961115,9.658039102852344,0.08765564113855362,0.06126761808991432,-0.05335981026291847
1697447118.6611423,-0.011434958865866065,-0.3233201978355646,9.862709487080574,0.08659037947654724,0.057006560266017914,-0.05122928321361542
1697447118.6661654,-0.05542101233266294,-0.40411090828478335,9.912979262471199,0.08232932537794113,0.055941298604011536,-0.05016401782631874
1697447118.671147,0.00562085778452456,-0.327808570638299,9.834881575703621,0.08232932537794113,0.05381076782941818,-0.05122928321361542
1697447118.6761637,0.05140226037241518,-0.1446829420235008,10.045835097432136,0.08232932537794113,0.04635391756892204,-0.04590296000242233
1697447118.6811469,0.047811562130227685,-0.1761015516426414,10.096104872822762,0.07167667895555496,0.042092859745025635,-0.03631557896733284
1697447118.686161,-0.02490007727406919,-0.3412736890465021,9.957862990498542,0.05463244393467903,0.0346360057592392,-0.03631557896733284
1697447118.691147,-0.01592333166860044,-0.23175737439654767,10.140090926289558,0.05463244393467903,0.02611389197409153,-0.03631557896733284
1697447118.6961625,-0.006048911502584815,-0.22996202527545392,10.242425826191901,0.03652295097708702,0.010134924203157425,-0.0288587287068367
1697447118.701146,-0.08773729651235043,-0.3385806653648615,10.075458357930183,0.02693556807935238,-0.002648248802870512,-0.03205452114343643
1697447118.7061648,-0.025797751834616064,-0.1877713209297508,10.12842115700245,0.018413452431559563,-0.0164966881275177,-0.03311978653073311
1697447118.7111456,-0.020411704471334814,-0.08543642102740705,10.36361189186573,0.004565014503896236,-0.02714933268725872,-0.029923994094133377
1697447118.7161343,-0.10120241492055357,-0.2739480787422508,10.266663039326668,-0.01674027554690838,-0.04099776968359947,-0.03205452114343643
1697447118.721173,-0.025797751834616064,-0.30267366467975076,10.135602553486823,-0.03058871254324913,-0.05271568149328232,-0.03311978653073311
1697447118.7261312,0.019085976192727686,-0.18238527356646955,10.315137465596198,-0.03698030114173889,-0.06549885123968124,-0.030989255756139755
1697447118.7311778,-0.07427217810414731,-0.2963899427559227,10.356430495381355,-0.0550897978246212,-0.07828202098608017,-0.034185051918029785
1697447118.7361338,-0.02490007727406919,-0.37179462410509584,10.202928145527839,-0.06361190974712372,-0.09639152139425278,-0.04057663679122925
1697447118.7411723,0.026267372677102684,-0.24791551648639143,10.214597914814949,-0.07106876373291016,-0.1049136370420456,-0.05016401782631874
1697447118.7461352,0.08820691735483706,-0.18597597180865705,10.439914229512214,-0.08065614104270935,-0.12515366077423096,-0.055490341037511826
1697447118.7511754,0.13668134362436832,-0.27125505506061015,10.405802596211434,-0.08065614104270935,-0.15391580760478973,-0.06294719129800797
1697447118.756134,0.30275113732554015,-0.30716205574572086,10.28910490334034,-0.09343931823968887,-0.17522108554840088,-0.07146930694580078
1697447118.7611759,0.36648601286113264,-0.20662248670123518,10.444402602314948,-0.0966351106762886,-0.19972217082977295,-0.052294548600912094
1697447118.766134,0.32339763395488264,-0.3448643872886896,10.44978864967823,-0.10302669554948807,-0.22315798699855804,-0.049098752439022064
1697447118.7711725,0.4203464864939451,-0.44001789070665837,10.286411879658699,-0.10728775709867477,-0.2348759025335312,-0.03525031730532646
1697447118.7761347,0.3099325155466795,-0.2344503980781883,10.420165389180184,-0.10728775709867477,-0.24446327984333038,-0.029923994094133377
1697447118.781172,0.3018534627649933,-0.2164969068672508,10.47851423561573,-0.11367934197187424,-0.25405067205429077,-0.008618703112006187
1697447118.786135,0.2937743917200714,-0.4059062574058771,10.27743513405323,-0.12113619595766068,-0.26044225692749023,0.00203394191339612
1697447118.791172,0.36648601286113264,-0.28651552258990703,10.211007216572762,-0.11900566518306732,-0.2678990960121155,0.012686586007475853
1697447118.7961323,0.3162162374705076,-0.26497133313678206,10.242425826191901,-0.11474461108446121,-0.2678990960121155,0.02760028839111328
1697447118.8011723,0.24978833825327454,-0.3807713697105646,10.087128127217293,-0.09983090311288834,-0.2764212191104889,0.037187669426202774
1697447118.8061388,0.35122554533183575,-0.334989967122674,10.008132765889167,-0.07000350207090378,-0.27429068088531494,0.03825293481349945
1697447118.8111758,0.4023929952830076,-0.14288759290240705,10.104183943867683,-0.06041611731052399,-0.27855175733566284,0.061688750982284546
1697447118.8161347,0.3808488058298826,-0.25689226209186017,10.226267684102059,-0.03484977036714554,-0.29346543550491333,0.07234139740467072
1697447118.8211691,0.45445811979472633,-0.3870550916343927,10.12842115700245,-0.0146097457036376,-0.3041180968284607,0.08832036703824997
1697447118.8261333,0.5244767355173826,-0.23893877088092266,10.108672316670418,0.014152394607663155,-0.3094444274902344,0.10216880589723587
1697447118.8311784,0.5226813863962888,-0.2236783033516258,10.238835127949715,0.02587030455470085,-0.31477072834968567,0.12773515284061432
1697447118.836132,0.5882116293162107,-0.3906457898765802,10.171509535908699,0.032261889427900314,-0.3169012665748596,0.14904044568538666
1697447118.8411756,0.5918023275583982,-0.3313992688804865,10.144579299092293,0.046110328286886215,-0.31583601236343384,0.17247626185417175
1697447118.846132,0.5828255819529294,-0.16892015515826642,10.305263045430182,0.049306124448776245,-0.31050968170166016,0.19910788536071777
1697447118.8511477,0.5846209310740232,-0.2227806287910789,10.252300246357917,0.05250191688537598,-0.30198755860328674,0.23426160216331482
1697447118.856168,0.6304023336619139,-0.3556364820152521,9.958760665059089,0.0514366514980793,-0.2892043888568878,0.25663214921951294
1697447118.86115,0.5612813924998045,-0.21111085950396954,10.027881606221198,0.056762974709272385,-0.26896438002586365,0.281133234500885
1697447118.8661659,0.5253744100779295,-0.27484575330279765,10.082639754414558,0.06741561740636826,-0.24552854895591736,0.30669960379600525
1697447118.8711548,0.5235790609568357,-0.39603183723986146,9.886049025654792,0.08339458703994751,-0.23061484098434448,0.32587435841560364
1697447118.8761628,0.5873139547556638,-0.1841806226875633,9.940807173848151,0.10043881833553314,-0.21037481725215912,0.34398385882377625
1697447118.8811436,0.5666674398630858,-0.09710619031451642,10.105979292988778,0.10789567232131958,-0.2018527090549469,0.36741966009140015
1697447118.8861632,0.514602315351367,-0.334989967122674,10.01890486061573,0.11854831129312515,-0.20398323237895966,0.38552916049957275
1697447118.8911424,0.4670255636423826,-0.4310411451011896,9.757680979073047,0.13665780425071716,-0.20398323237895966,0.39405128359794617
1697447118.896162,0.44009532682597635,-0.2658690076973289,9.80615598976612,0.1494409739971161,-0.2061137557029724,0.40363866090774536
1697447118.9011471,0.4230395101755857,-0.2802318006660789,9.848346694111823,0.16541995108127594,-0.21250535547733307,0.4164218306541443
1697447118.9061642,0.38533717863261696,-0.33768299080431463,9.76845307379961,0.1771378517150879,-0.21463587880134583,0.41748708486557007
1697447118.9111478,0.3772581075876951,-0.15276201306842266,9.843858321309089,0.19737787544727325,-0.2210274636745453,0.4334660768508911
1697447118.9161618,0.3018534627649933,-0.24701784192584456,9.86630018532276,0.20270420610904694,-0.22848431766033173,0.43240079283714294
1697447118.9211965,0.2812069478724152,-0.49028766609728336,9.649960031807423,0.22187896072864532,-0.2391369640827179,0.42707449197769165
1697447118.92616,0.33596507780253887,-0.39333881355822087,9.647267008125782,0.23785792291164398,-0.2487243413925171,0.42707449197769165
1697447118.931151,0.29556974084116516,-0.2380410963203758,9.823211806416511,0.2591632306575775,-0.2583117187023163,0.4153565764427185
1697447118.936163,0.19592786462046205,-0.38885044075548647,9.685867014229297,0.27088114619255066,-0.2668338418006897,0.4100302457809448
1697447118.9411452,0.25607206017710266,-0.4130876538902521,9.559294901192189,0.28899064660072327,-0.2721601724624634,0.3919207453727722
1697447118.9461677,0.2856953206751496,-0.20033876477740706,9.710104227364063,0.29964327812194824,-0.2817475497722626,0.3876596987247467
1697447118.9511464,0.2973650899622589,-0.27574342786334455,9.769350748360157,0.3071001470088959,-0.28813913464546204,0.3780723214149475
1697447118.9561596,0.35391856901347635,-0.4723341748863458,9.552113504707814,0.32307910919189453,-0.2945307195186615,0.355701744556427
1697447118.9611442,0.3988022970408201,-0.2775387769844383,9.626620493233204,0.34118860960006714,-0.29346543550491333,0.34398385882377625
1697447118.9661386,0.43650462858378886,-0.1761015516426414,9.80884901344776,0.3475801944732666,-0.29346543550491333,0.3322659432888031
1697447118.9711654,0.4239371847361326,-0.3269108960777521,9.748704233467578,0.3582328259944916,-0.2902696430683136,0.3237438201904297
1697447118.9761357,0.4661278890818357,-0.2021341138985008,9.729853067696094,0.37740758061408997,-0.2796170115470886,0.30776485800743103
1697447118.9811728,0.5262720846384764,-0.018110828986391426,9.854630416035652,0.3806033730506897,-0.2764212191104889,0.30776485800743103
1697447118.986133,0.4616395162791014,-0.21739458142779766,9.805258315205574,0.39125603437423706,-0.2625727653503418,0.29817748069763184
1697447118.9911723,0.5137046407908201,-0.28382249890826644,9.77114609748125,0.40190866589546204,-0.2572464644908905,0.2896553575992584
1697447118.9961321,0.5469185995310545,0.008819407830014824,9.921956008076668,0.4072349965572357,-0.24978959560394287,0.281133234500885
1697447119.0011759,0.5038302206248045,0.007024058708921074,9.956965315937996,0.41043078899383545,-0.25085487961769104,0.2758069336414337
1697447119.006134,0.48318370573222635,-0.13570619641803205,9.804360056221485,0.4221487045288086,-0.25405067205429077,0.26621952652931213
1697447119.0111787,0.5352488302439451,0.09768918932415545,9.816030409932136,0.42427924275398254,-0.24978959560394287,0.26089322566986084
1697447119.016137,0.4742069601267576,0.17578687609173357,10.008132765889167,0.42960554361343384,-0.2529853880405426,0.2534363567829132
1697447119.0211732,0.5020348715037107,0.0097170823905617,9.92375135719776,0.4359971284866333,-0.26363804936408997,0.24065318703651428
1697447119.0261347,0.5953930258005857,0.13718686998821794,9.853732741475104,0.4455845057964325,-0.2721601724624634,0.24065318703651428
1697447119.031175,0.5980860494822263,0.411875267252326,10.099695571064949,0.441323459148407,-0.2774864733219147,0.24065318703651428
1697447119.0361342,0.6636162924021483,0.36788921378552913,10.270253737568854,0.43706241250038147,-0.2860085964202881,0.24597951769828796
1697447119.0411768,0.6824674581736326,0.27453107775188984,10.197542098164558,0.4359971284866333,-0.2945307195186615,0.25556689500808716
1697447119.046139,0.715681416913867,0.483689232096076,10.297183974385261,0.42854028940200806,-0.3051833510398865,0.27048060297966003
1697447119.0511727,0.7587697958201169,0.598591575846076,10.500956099629402,0.4136265814304352,-0.32009705901145935,0.2864595651626587
1697447119.056132,0.7138860677927732,0.4163636400550604,10.448890975117683,0.393386572599411,-0.336076021194458,0.30669960379600525
1697447119.0611725,0.7067046713083982,0.5142101671546697,10.465946791768074,0.37847286462783813,-0.34672868251800537,0.3280048668384552
1697447119.0661352,0.7255558370798826,0.7090055467933416,10.59072355568409,0.3529064953327179,-0.36164239048957825,0.34931015968322754
1697447119.0711722,0.6528441976755858,0.5151078417152166,10.506342146992683,0.3198833167552948,-0.3722950220108032,0.37594178318977356
1697447119.0761366,0.6061651205271482,0.48817760489881035,10.425551436543465,0.29857802391052246,-0.38614344596862793,0.382333368062973
1697447119.081177,0.5801325582712888,0.6569404222816229,10.523397963643074,0.265554815530777,-0.39892664551734924,0.40044286847114563
1697447119.0861373,0.5181930135935545,0.5151078417152166,10.486593306660652,0.23998846113681793,-0.4191666543483734,0.40044286847114563
1697447119.0911791,0.5316581320017576,0.34814037345349785,10.298979323506355,0.22400948405265808,-0.4330151081085205,0.4015081226825714
1697447119.0961351,0.5684627889841795,0.6291125109046698,10.330397933125496,0.2048347294330597,-0.45005932450294495,0.3961818218231201
1697447119.1011753,0.5621790670603514,0.7224706652015448,10.491081679463386,0.18033364415168762,-0.46816882491111755,0.38979020714759827
1697447119.1061637,0.6043697714060545,0.498052025064826,10.448890975117683,0.15476730465888977,-0.48734357953071594,0.38126811385154724
1697447119.1111417,0.622323262616992,0.5007450487464666,10.316932814717292,0.14198412001132965,-0.5022573471069336,0.37168073654174805
1697447119.1161637,0.6384814047068357,0.5967962267249822,10.368997939229011,0.11428725719451904,-0.5246278643608093,0.35783228278160095
1697447119.1211476,0.737225606366992,0.49625667594373224,10.479411910176276,0.09191670268774033,-0.5427373647689819,0.3418533205986023
1697447119.12616,0.9086814474314451,0.4253403856605291,10.278332808613778,0.0748724713921547,-0.5501942038536072,0.3226785659790039
1697447119.1311467,0.937407033368945,0.5680706407874823,10.171509535908699,0.0514366514980793,-0.5576510429382324,0.30776485800743103
1697447119.1361651,1.067569844648242,0.5824334337562322,10.24332350075245,0.031196627765893936,-0.5565857887268066,0.2907206118106842
1697447119.1411455,1.1411791586130857,0.4289310839027166,10.03596067726612,0.0066955434158444405,-0.5427373647689819,0.27900272607803345
1697447119.1461608,1.3413605856150388,0.5994892504066228,10.058402541279792,0.01202186569571495,-0.538476288318634,0.26941534876823425
1697447119.1511483,1.420355946943164,0.34185665152966976,9.870788558125495,-0.005022365599870682,-0.5203667879104614,0.25663214921951294
1697447119.1561625,1.3736768697947264,0.28979154528118667,9.827700179219246,-0.006087630055844784,-0.49693095684051514,0.24065318703651428
1697447119.1611445,1.3745745443552733,0.45406597159802914,9.940807173848151,-0.0028918369207531214,-0.4798867404460907,0.23319634795188904
1697447119.1661646,1.5020443319529295,0.4055915453284979,9.96145368874073,0.0013692209031432867,-0.4649730324745178,0.22680474817752838
1697447119.1711464,1.5514164327830076,0.23862409533001483,9.821416457295417,0.0003039565053768456,-0.44899407029151917,0.22254370152950287
1697447119.1761627,1.5451327108591795,0.3768659593909979,9.816928084492684,0.0013692209031432867,-0.4340803623199463,0.2161521166563034
1697447119.181145,1.4849885153025388,0.3346752550452948,9.83218855202198,0.0034997498150914907,-0.43088456988334656,0.2161521166563034
1697447119.1861618,1.476909444257617,0.1632194322440773,9.754987955391407,0.010956601239740849,-0.4191666543483734,0.21934790909290314
1697447119.1911423,1.4948629354685545,0.2826101487968117,9.61943909674883,0.024805039167404175,-0.41064453125,0.2161521166563034
1697447119.1961699,1.5478257345408202,0.40738689444959164,9.704718180000782,0.020543981343507767,-0.41064453125,0.22360895574092865
1697447119.2011437,1.63400249235332,0.25837293566204605,9.719080972969532,0.02267451025545597,-0.40744873881340027,0.2310658097267151
1697447119.206134,1.63400249235332,0.21259153307415543,9.542239084541798,0.021609246730804443,-0.40318769216537476,0.2310658097267151
1697447119.2111752,1.6474676107615231,0.32031246207654474,9.456062326729297,0.04078400880098343,-0.4095792770385742,0.23639214038848877
1697447119.216133,1.7587792562693356,0.2718380540702492,9.526080942451953,0.04397980123758316,-0.4095792770385742,0.24704478681087494
1697447119.221172,1.8018676351755858,0.14526594103313983,9.383350687325,0.05782824009656906,-0.41277506947517395,0.2491753101348877
1697447119.2261329,1.7830164694041013,0.26286130846478045,9.351034403145313,0.06954614818096161,-0.402122437953949,0.26089322566986084
1697447119.2311723,1.8799653219431638,0.3499357225745916,9.514411173164845,0.09085144102573395,-0.39040452241897583,0.2768721878528595
1697447119.2361374,1.9481885885447263,0.1605264085624367,9.404894876778126,0.10789567232131958,-0.37549081444740295,0.2853943109512329
1697447119.2411728,1.9185653280466795,0.21169385851360856,9.219973917305468,0.12387463450431824,-0.35631605982780457,0.2992427349090576
1697447119.2461307,1.9383141683787106,0.4639403917640447,9.521592569649219,0.14731045067310333,-0.3318149745464325,0.3152216970920563
1697447119.251173,1.9769141744822263,0.3777636339515448,9.671504221260548,0.15050624310970306,-0.30624863505363464,0.33013540506362915
1697447119.2561347,1.943700215741992,0.19733106554485857,9.499150705635547,0.15263676643371582,-0.27855175733566284,0.33972278237342834
1697447119.261174,1.9472909139841794,0.340061302408576,9.539546060860157,0.15583255887031555,-0.24978959560394287,0.3514406979084015
1697447119.2661343,1.9401095174998044,0.3508333971351385,9.661629801094533,0.15583255887031555,-0.22422325611114502,0.3652891516685486
1697447119.2711728,1.8171281027048827,0.20092176378704607,9.588918161690234,0.14517991244792938,-0.20398323237895966,0.37274599075317383
1697447119.2761393,1.7686536764353513,0.32839153312146663,9.478504190742969,0.14198412001132965,-0.17735162377357483,0.3780723214149475
1697447119.281176,1.7839141439646482,0.44149852775037285,9.503639078438281,0.1345272809267044,-0.16350318491458893,0.38659441471099854
1697447119.2861357,1.7094071554392576,0.19374036730267108,9.408485575020313,0.1206788420677185,-0.1560463309288025,0.3887249529361725
1697447119.2911713,1.6295141195505858,0.1784798997733742,9.389634409248828,0.11854831129312515,-0.15178526937961578,0.3972470760345459
1697447119.2961435,1.6187420248240232,0.325698509439826,9.43810883551836,0.11322199553251266,-0.15711160004138947,0.38659441471099854
1697447119.3011715,1.6286164449900389,0.1847636216972023,9.453369303047657,0.10469987988471985,-0.1698947697877884,0.382333368062973
1697447119.3061326,1.584630391523242,0.09679151476360857,9.236132059395313,0.10896093398332596,-0.19120006263256073,0.37274599075317383
1697447119.311182,1.5693699239939451,0.2502938646171242,9.262164621651172,0.11854831129312515,-0.19865691661834717,0.35783228278160095
1697447119.3161337,1.655546681806445,0.35352642081677915,9.552113504707814,0.1164177879691124,-0.2071790248155594,0.3461143672466278
1697447119.3211765,1.6528536581248046,0.21259153307415543,9.417462320625782,0.11322199553251266,-0.2114400863647461,0.33546173572540283
1697447119.326135,1.607072255536914,0.2395217698905617,9.207406473457812,0.11322199553251266,-0.21463587880134583,0.3269396126270294
1697447119.3311799,1.621435048505664,0.3822520067542791,9.442597208321095,0.10576514154672623,-0.20504850149154663,0.318417489528656
1697447119.336133,1.6169466757029294,0.2799171251151711,9.677787943184375,0.10896093398332596,-0.20398323237895966,0.3130911886692047
1697447119.341168,1.599890859052539,0.10397291124798357,9.480299539864063,0.10469987988471985,-0.21783167123794556,0.3269396126270294
1697447119.3461385,1.697737386152148,0.3436520006507635,9.595201883614063,0.09511249512434006,-0.22209273278713226,0.345049113035202
1697447119.35115,1.7596769308298825,0.32390316031873223,9.75409028083086,0.06741561740636826,-0.22741904854774475,0.35889753699302673
1697447119.3561687,1.526281545087695,-0.03965501843951642,9.515308847725391,0.06635035574436188,-0.25511592626571655,0.3983123302459717
1697447119.3611526,1.469728047773242,0.0007403367850929498,9.447983255684376,0.06102403253316879,-0.2817475497722626,0.44198817014694214
1697447119.3661666,1.613355977460742,0.1389822191093117,9.487480936348438,0.05782824009656906,-0.3169012665748596,0.47927242517471313
1697447119.3711424,1.5226908468455076,0.02946592272259295,9.418359995186329,0.06102403253316879,-0.3456633985042572,0.5165566802024841
1697447119.3761652,1.5568024801462887,0.07614499987103045,9.340262308418751,0.059958767145872116,-0.3722950220108032,0.5410577654838562
1697447119.3811433,1.5289745687693357,0.2287496751639992,9.437211160957814,0.06208929419517517,-0.4053182303905487,0.5634283423423767
1697447119.386164,1.4822954916208981,0.0671682542655617,9.44977860480547,0.06848088651895523,-0.43088456988334656,0.5879294276237488
1697447119.3911479,1.5065327047556638,-0.08902711926959454,9.344750681221484,0.07380720973014832,-0.47242987155914307,0.595386266708374
1697447119.3961618,1.5747559713572263,-0.02080385266803205,9.3546251013875,0.08552511781454086,-0.5033226013183594,0.5857988595962524
1697447119.4011471,1.4948629354685545,-0.0046457105781883,9.56468094855547,0.09617775678634644,-0.5203667879104614,0.5751462578773499
1697447119.4061663,1.448183858320117,-0.15455736218951643,9.565578623116016,0.09617775678634644,-0.5288889408111572,0.5463840961456299
1697447119.4111443,1.426639668866992,-0.07556200086139142,9.496457681953906,0.1025693491101265,-0.5203667879104614,0.5101650953292847
1697447119.4161649,1.441900136396289,0.19553571642376483,9.807053664326668,0.10363461077213287,-0.5065183639526367,0.46968504786491394
1697447119.4211442,1.3718815206736326,0.09858686388470232,9.99287229835987,0.08978617191314697,-0.4798867404460907,0.4121607840061188
1697447119.426162,1.4015047811716794,-0.06030153333209455,9.824109480977057,0.08126405626535416,-0.44047194719314575,0.3429185748100281
1697447119.4311476,1.5657792257517575,0.0815310472343117,9.955169966816902,0.07061140984296799,-0.39466556906700134,0.27048060297966003
1697447119.4361622,1.6501606344431639,0.11384733141399919,10.134704878926277,0.035457685589790344,-0.35631605982780457,0.20017313957214355
1697447119.4411523,1.7112025045603514,0.06088453234173357,10.150863021016121,0.004565014503896236,-0.3073138892650604,0.11601724475622177
1697447119.4461648,1.8341839193552731,0.1282101243827492,10.15983976662159,-0.03165397793054581,-0.2753559648990631,0.049970842897892
1697447119.4511464,1.8889420675486326,0.1856612962577492,10.220881636738778,-0.0646771788597107,-0.2572464644908905,-0.005422909278422594
1697447119.4561625,1.8108443807810544,-0.04952943860553205,10.030574629902839,-0.10302669554948807,-0.25085487961769104,-0.0704040452837944
1697447119.461144,1.8602164816111326,-0.09531084119342267,9.839369948506356,-0.12113619595766068,-0.24552854895591736,-0.1257977932691574
1697447119.4661365,1.8736816000193357,0.03305662096478045,9.927342055439949,-0.15096360445022583,-0.261507511138916,-0.17799575626850128
1697447119.47117,1.7740397237986325,-0.054017811408266427,9.966839736104012,-0.17226889729499817,-0.2806822657585144,-0.22273685038089752
1697447119.4761343,1.698635060712695,-0.27125505506061015,9.692150736153126,-0.1946394443511963,-0.3073138892650604,-0.2664127051830292
1697447119.4811738,1.7192815756052733,-0.24971086560748518,9.594304209053517,-0.20422683656215668,-0.3403370976448059,-0.30050116777420044
1697447119.4861288,1.677988545820117,-0.2164969068672508,9.756783304512501,-0.21168369054794312,-0.3744255602359772,-0.331393837928772
1697447119.4911747,1.6717048238962888,-0.3385806653648615,9.596997232735157,-0.21168369054794312,-0.4063834846019745,-0.36015596985816956
1697447119.4961367,1.8449560140818357,-0.3089574048668146,9.360908823311329,-0.21168369054794312,-0.43621090054512024,-0.3803960084915161
1697447119.5011723,2.0173095297068357,-0.13660387097857893,9.520694895088672,-0.21061842143535614,-0.46284249424934387,-0.3846570551395416
1697447119.506135,2.0191048788279296,-0.2963899427559227,9.589815836250782,-0.21061842143535614,-0.47882145643234253,-0.3889181315898895
1697447119.5111723,2.1340072225779294,-0.3861574170738459,9.428234415352344,-0.19783525168895721,-0.4884088635444641,-0.3857223093509674
1697447119.5161374,2.2767374777048826,-0.21739458142779766,9.470425119698048,-0.1935741901397705,-0.4884088635444641,-0.37400442361831665
1697447119.5211754,2.2839188741892578,-0.24522249280475078,9.499150705635547,-0.18185627460479736,-0.49586570262908936,-0.358025461435318
1697447119.5261354,2.345858418866992,-0.42565509773790833,9.31422974616289,-0.16481204330921173,-0.4884088635444641,-0.3452422618865967
1697447119.5311787,2.5191097551584245,-0.3475574109703302,9.331285562813282,-0.13711516559123993,-0.48201724886894226,-0.32819804549217224
1697447119.5361326,2.62952372610569,-0.2272690015938133,9.39232743293047,-0.12539725005626678,-0.47349515557289124,-0.30050116777420044
1697447119.5411727,2.678895826935768,-0.4023155591636896,9.19932740241289,-0.0966351106762886,-0.4660382866859436,-0.28558745980262756
1697447119.5461333,2.850351668000221,-0.4750271985679865,9.017997141182422,-0.06041611731052399,-0.4617772400379181,-0.2642821669578552
1697447119.551173,2.9212679582834244,-0.2541992384102195,9.135592508614064,-0.026327654719352722,-0.4532551169395447,-0.24510741233825684
1697447119.5561388,2.835091200470924,-0.24342714368365703,9.17957856208086,0.0056302789598703384,-0.4436677396297455,-0.23445476591587067
1697447119.5611768,2.9069051653146745,-0.3448643872886896,8.980294809639453,0.0375882126390934,-0.42236244678497314,-0.22593265771865845
1697447119.5661354,2.9912865740060806,-0.1410922437813133,8.967727365791797,0.07593773305416107,-0.40851402282714844,-0.2195410579442978
1697447119.5711765,3.044249373078346,-0.02798524915240705,9.246904154121875,0.10576514154672623,-0.38401293754577637,-0.218475803732872
1697447119.5761356,3.0693842607736586,-0.14558061658404767,9.268448343575,0.1302662193775177,-0.34779393672943115,-0.21314947307109833
1697447119.5811741,3.1295284563302994,-0.0333712965156883,9.285504160225392,0.14624518156051636,-0.3222275972366333,-0.21314947307109833
1697447119.586138,3.1025982195138933,0.16860547960735858,9.571862345039845,0.1537020355463028,-0.29666125774383545,-0.20356209576129913
1697447119.5911744,3.1492772966623304,0.043828715691342945,9.633801889717578,0.16009362041950226,-0.28281280398368835,-0.20143157243728638
1697447119.5961366,3.2264773088693617,-0.005543385138735175,9.526080942451953,0.163289412856102,-0.2710948884487152,-0.18971365690231323
1697447119.6011734,3.2552028948068616,0.16411710680462419,9.698434458076953,0.1579630970954895,-0.2668338418006897,-0.17160415649414062
1697447119.6061664,3.287519178986549,0.17040082872845233,9.772941446602344,0.14517991244792938,-0.2657685875892639,-0.16201677918434143
1697447119.6111517,3.2821331316232683,0.0025356859061866997,9.51261582404375,0.13133147358894348,-0.26470330357551575,-0.14603781700134277
1697447119.6161613,3.2731563860177992,0.11833570421673358,9.496457681953906,0.11961358040571213,-0.27429068088531494,-0.12473253160715103
1697447119.621145,3.2345563799142836,0.22336362780071795,9.600587930977344,0.10896093398332596,-0.27855175733566284,-0.10981883108615875
1697447119.6261659,3.1780028825998303,-0.03965501843951642,9.28011811286211,0.1068304032087326,-0.2849433422088623,-0.10875356197357178
1697447119.6311424,3.059509840607643,0.20092176378704607,9.132899484932423,0.11322199553251266,-0.2774864733219147,-0.1076883003115654
1697447119.636161,2.9562772661447525,0.06896360338665544,9.115843668282032,0.1206788420677185,-0.28281280398368835,-0.10129671543836594
1697447119.6411462,3.0631005388498305,-0.08184572278521955,8.816918039619923,0.11961358040571213,-0.2764212191104889,-0.11940620839595795
1697447119.646166,3.1008028703927994,0.03305662096478045,8.919252939522266,0.13239674270153046,-0.27322542667388916,-0.12899358570575714
1697447119.651146,2.9832075029611587,-0.01721315442584455,9.290890207588673,0.13772307336330414,-0.2710948884487152,-0.1396462321281433
1697447119.6561618,2.9921842485666272,-0.31793415047228335,8.95515992194414,0.12387463450431824,-0.26896438002586365,-0.15775571763515472
1697447119.6611543,2.9787191301584244,-0.20123643933795393,8.726252909004687,0.13878832757472992,-0.27322542667388916,-0.18545259535312653
1697447119.666168,2.8736912065744398,-0.07825502454303204,9.082629709541797,0.15583255887031555,-0.27002963423728943,-0.22060632705688477
1697447119.6711454,2.9006214433908464,-0.18956667005084454,9.152648325264453,0.14198412001132965,-0.27855175733566284,-0.2472379356622696
1697447119.6761665,2.971537733674049,-0.24701784192584456,8.989271555244922,0.1355925351381302,-0.2774864733219147,-0.2802611291408539
1697447119.681146,2.9257563310861587,-0.13032014905475078,9.028769235908985,0.1355925351381302,-0.2774864733219147,-0.2802611291408539
1697447119.6821744,2.9257563310861587,-0.13032014905475078,9.028769235908985,0.1302662193775177,-0.27855175733566284,-0.30902329087257385
1697447119.6861653,2.942812147736549,-0.22008760510943828,9.048518076241017,0.1302662193775177,-0.27002963423728943,-0.3345896303653717
1697447119.6911497,3.024500532746315,-0.36102252937853335,8.762159891426563,0.1302662193775177,-0.27002963423728943,-0.3345896303653717
1697447119.6921706,3.024500532746315,-0.36102252937853335,8.762159891426563,0.12280937284231186,-0.2583117187023163,-0.36548230051994324
1697447119.6961677,3.051430769562721,-0.08543642102740705,8.771136637032031,0.12280937284231186,-0.2295495867729187,-0.37933072447776794
1697447119.7011466,3.0056493669748305,0.09499616564251483,8.980294809639453,0.12280937284231186,-0.2295495867729187,-0.37933072447776794
1697447119.7021728,3.0056493669748305,0.09499616564251483,8.980294809639453,0.11109146475791931,-0.2071790248155594,-0.3846570551395416
1697447119.7061682,3.08913310110569,-0.03426897107623517,8.77742035895586,0.09724302589893341,-0.17735162377357483,-0.3857223093509674
1697447119.711147,3.2210912615060807,0.02587522448040545,8.587113352119923,0.09724302589893341,-0.17735162377357483,-0.3857223093509674
1697447119.7121713,3.2210912615060807,0.02587522448040545,8.587113352119923,0.0929819643497467,-0.14326316118240356,-0.3910486400127411
1697447119.7171438,3.16094706594944,0.2754287523124367,8.812429666817188,0.08978617191314697,-0.10704416781663895,-0.3889181315898895
1697447119.7221637,3.14658427298069,0.1928426927421242,8.942592478096484,0.07380720973014832,-0.0814778208732605,-0.37933072447776794
1697447119.727178,3.2704633623361588,0.10307523668743669,8.746001749336719,0.05889350175857544,-0.058042000979185104,-0.3772002160549164
1697447119.7311783,3.297393599152565,0.3553217699378729,8.860904093086718,0.04078400880098343,-0.028214596211910248,-0.37400442361831665
1697447119.7361398,3.268668013215065,0.3768659593909979,9.102378549873828,0.04078400880098343,-0.028214596211910248,-0.37400442361831665
1697447119.737189,3.268668013215065,0.3768659593909979,9.102378549873828,0.020543981343507767,-0.0164966881275177,-0.3622865080833435
1697447119.7421367,3.276747084259987,0.18027524889446794,9.073652963936329,-0.005022365599870682,-0.00690930662676692,-0.3633517622947693
1697447119.7471762,3.2821331316232683,0.3032566636893898,8.943490152657033,-0.026327654719352722,0.004808602388948202,-0.3590907156467438
1697447119.7521396,3.1789005571603774,0.45316829703748224,9.144569254219531,-0.05082874000072479,0.009069659747183323,-0.35056859254837036
1697447119.7571735,3.0900307756662366,0.26555433214642105,9.202020426094531,-0.07959087938070297,0.010134924203157425,-0.3537643849849701
1697447119.7621367,2.9634586626291273,0.06178220690228045,8.781908731758595,-0.1243319883942604,0.017591776326298714,-0.37506967782974243
1697447119.767174,2.874588881134987,0.4208520128577948,8.781908731758595,-0.13285410404205322,0.02291809767484665,-0.38359180092811584
1697447119.7721374,2.8045702654123303,0.24760084093548357,8.87795990973711,-0.1520288735628128,0.04422338679432869,-0.395309716463089
1697447119.7771792,2.7677656084299085,0.18925199449993668,8.55928544074297,-0.1701383739709854,0.055941298604011536,-0.41554972529411316
1697447119.782142,2.6905655962228776,0.34454967521131036,8.558387766182422,-0.17759521305561066,0.08150764554738998,-0.4315286874771118
1697447119.7871757,2.6402958208322524,0.45765666984021663,8.712787790596485,-0.17439942061901093,0.09961714595556259,-0.44431185722351074
1697447119.792134,2.5990027910470963,0.09050779283978044,8.501834268867968,-0.16694258153438568,0.11879190802574158,-0.4538992643356323
1697447119.7971795,2.7022353655099867,0.11384733141399919,8.426429605782031,-0.14563728868961334,0.13050980865955353,-0.47094348073005676
1697447119.8021367,2.7192911821603776,0.3580147936195135,8.723559885323047,-0.1285930573940277,0.1273140162229538,-0.48053085803985596
1697447119.8071783,2.8404772478342055,0.318517112955451,8.804350595772267,-0.11474461108446121,0.11133505403995514,-0.48159611225128174
1697447119.812139,2.895235396027565,0.2601682847831398,8.700220346748829,-0.10089617222547531,0.0942908227443695,-0.4879877269268036
1697447119.8171794,2.980514479279518,0.4289310839027166,8.67688080817461,-0.10302669554948807,0.08470344543457031,-0.4911835193634033
1697447119.822138,2.9113935381174088,0.45406597159802914,8.76575058966875,-0.0827866718173027,0.06872447580099106,-0.48159611225128174
1697447119.8271806,2.8916446977853774,0.383149681314826,8.784601755440235,-0.07106876373291016,0.06339815258979797,-0.48159611225128174
1697447119.8321352,2.9419144731760025,0.6784846117347478,8.83217850714922,-0.06148138269782066,0.055941298604011536,-0.4741392731666565
1697447119.837174,2.8530446916818617,0.878666038736701,8.9524668982625,-0.06680770218372345,0.05061497539281845,-0.4752045273780823
1697447119.8421378,2.8198307329416274,0.7485032274574042,8.983885507881642,-0.06574244052171707,0.04422338679432869,-0.469878226518631
1697447119.847173,2.8279098039865493,0.7844102098792791,8.90668549567461,-0.06680770218372345,0.03783180192112923,-0.47626981139183044
1697447119.852136,2.843170271515846,0.9612520983070135,8.987476206123828,-0.06148138269782066,0.02291809767484665,-0.48159611225128174
1697447119.8571758,2.8736912065744398,0.9172660448402166,9.08801575690508,-0.0689382329583168,0.016526510939002037,-0.4794656038284302
1697447119.8621387,2.9275516802072525,0.8696892931312322,8.942592478096484,-0.06787297129631042,0.011200188659131527,-0.48479193449020386
1697447119.8671508,2.9104958635568616,1.0519172289222478,8.93810410529375,-0.06148138269782066,0.004808602388948202,-0.48479193449020386
1697447119.8721647,2.874588881134987,1.1093684007972477,9.155341348946095,-0.05828559026122093,0.014395982027053833,-0.4688129425048828
1697447119.8771493,2.8557377153635026,0.979205589517951,9.054801798164844,-0.04763294383883476,0.014395982027053833,-0.4688129425048828
1697447119.8821695,2.9051098161935807,1.0707683946937323,8.960545969307422,-0.0412413589656353,0.023983363062143326,-0.4464423954486847
1697447119.8871465,2.9203702837228773,1.1892614366859198,9.278322763741016,-0.039110828191041946,0.03250547870993614,-0.4272676408290863
1697447119.8921695,2.820728407502174,0.9657404711097478,9.325001840889454,-0.042306624352931976,0.0346360057592392,-0.4091581404209137
1697447119.8971496,2.752505140900612,0.8804613878577947,9.264857645332812,-0.04443715140223503,0.03783180192112923,-0.3942444324493408
1697447119.9021652,2.802774916291237,1.1120614244788884,9.39502045661211,-0.04869820922613144,0.03570127114653587,-0.37506967782974243
1697447119.907148,2.7309609514474866,1.1192428209632634,9.603280954658985,-0.057220324873924255,0.031440213322639465,-0.3729391396045685
1697447119.9121695,2.671714430451393,0.9989544298499823,9.587122812569142,-0.07639508694410324,0.014395982027053833,-0.36867809295654297
1697447119.9171503,2.6097748857736587,1.1533544542640448,9.572760019600391,-0.10196143388748169,0.002678073476999998,-0.36441704630851746
1697447119.9221668,2.616956282258034,1.1533544542640448,9.723569345772265,-0.11687513440847397,-0.02395353838801384,-0.366547554731369
1697447119.927146,2.614263258576393,0.9818986131995916,9.640983286201953,-0.14137622714042664,-0.050585150718688965,-0.37933072447776794
1697447119.932169,2.645681868195534,1.0402474596351385,9.491071634590625,-0.1562899351119995,-0.07828202098608017,-0.3942444324493408
1697447119.9371445,2.663635359406471,1.2000335314124821,9.56737397223711,-0.16907310485839844,-0.1049136370420456,-0.40170130133628845
1697447119.9421675,2.6385004717111586,1.1255265428870915,9.59879258185625,-0.18292154371738434,-0.1283494532108307,-0.41981080174446106
1697447119.94715,2.6097748857736587,1.0519172289222478,9.292685556709767,-0.17759521305561066,-0.14432841539382935,-0.4368550181388855
1697447119.9521646,2.594514418244362,1.151559105142951,9.272936716377735,-0.1701383739709854,-0.15178526937961578,-0.4496381878852844
1697447119.9571495,2.5307795244455336,1.1425823595374822,9.490173960030079,-0.16374677419662476,-0.15924212336540222,-0.4634866416454315
1697447119.9621654,2.5415516191720964,0.993568382486701,9.362704172432423,-0.15522466599941254,-0.15924212336540222,-0.478400319814682
1697447119.9671478,2.5765609270334244,1.0321683885902166,9.268448343575,-0.14137622714042664,-0.15178526937961578,-0.4933140277862549
1697447119.9721684,2.571174879670143,1.138093986734748,9.42374604254961,-0.12539725005626678,-0.15072001516819,-0.4975751042366028
1697447119.9771757,2.5415516191720964,0.9971590807288885,9.501843729317187,-0.11794040352106094,-0.1464589536190033,-0.5092930197715759
1697447119.9821372,2.550528364777565,1.051019554361701,9.386043711006641,-0.10196143388748169,-0.1464589536190033,-0.5103582739830017
1697447119.9871778,2.647477217316627,1.3652056505531072,9.600587930977344,-0.09343931823968887,-0.15391580760478973,-0.5060971975326538
1697447119.9921396,2.631319075226784,1.4280428697913885,9.840267623066902,-0.10941828787326813,-0.16776424646377563,-0.5082277655601501
1697447119.9971719,2.6196493059396744,1.3185265734046698,9.71369492560625,-0.11687513440847397,-0.18267793953418732,-0.5071624517440796
1697447120.0021403,2.64388651907444,1.4433033373206854,9.738829813301564,-0.11474461108446121,-0.1975916475057602,-0.5039666891098022
1697447120.0071778,2.75878886282444,1.5079359056800603,9.92105833351612,-0.13711516559123993,-0.22635379433631897,-0.49970561265945435
1697447120.012134,2.751607466340065,1.4262475206702947,9.891435073018073,-0.16481204330921173,-0.24765907227993011,-0.5082277655601501
1697447120.017173,2.9042121416330335,1.5375591661781072,9.851937392354012,-0.18185627460479736,-0.27429068088531494,-0.5071624517440796
1697447120.0221374,2.9481981950998306,1.668619652017951,10.074560683369636,-0.20529209077358246,-0.3030528426170349,-0.5124887824058533
1697447120.0271707,2.9850028520822525,1.4792103197425603,9.924649031758308,-0.2351195067167282,-0.32968443632125854,-0.5124887824058533
1697447120.0321352,3.0990075212717056,1.6192475511878728,9.851039717793464,-0.2489679455757141,-0.35312026739120483,-0.5242066979408264
1697447120.0371788,3.04604472219944,1.5833405687659978,9.914774611592293,-0.26707741618156433,-0.3744255602359772,-0.5167498588562012
1697447120.0421371,3.0325796037912367,1.4522800829261542,9.734341440498829,-0.27453428506851196,-0.3882739841938019,-0.5103582739830017
1697447120.04718,3.107984266877174,1.575261497721076,9.539546060860157,-0.2809258699417114,-0.3925350606441498,-0.5124887824058533
1697447120.0521383,3.2408401018381117,1.718889427408576,9.692150736153126,-0.28412166237831116,-0.3957308530807495,-0.4933140277862549
1697447120.057176,3.2920075517892835,1.6291219713538885,9.602383280098438,-0.29903537034988403,-0.3957308530807495,-0.469878226518631
1697447120.0621355,3.4239657121896743,1.5860335924476385,9.421053018867969,-0.30223116278648376,-0.3957308530807495,-0.45283398032188416
1697447120.0671778,3.57746806204319,1.7206847765296698,9.63918793708086,-0.29477429389953613,-0.4010571539402008,-0.4230065941810608
1697447120.0721362,3.57746806204319,1.6740056993812322,9.732546091377735,-0.29903537034988403,-0.40851402282714844,-0.3867875933647156
1697447120.0771775,3.44820292532444,1.518708000406623,9.563783273994922,-0.31288379430770874,-0.4095792770385742,-0.3676128387451172
1697447120.0821357,3.4859052568674085,1.5617963793128729,9.584429788887501,-0.32247117161750793,-0.4053182303905487,-0.3399159610271454
1697447120.0871785,3.547844801545143,1.4693358995765446,9.561090250313281,-0.3288627564907074,-0.4063834846019745,-0.3079580068588257
1697447120.0921364,3.5954215532541274,1.2323498155921697,9.341159982979297,-0.32673221826553345,-0.41384032368659973,-0.26747795939445496
1697447120.0971751,3.7399471575021743,1.2817219164222478,9.167908792793751,-0.31607958674430847,-0.4276887774467468,-0.2419116199016571
1697447120.1021717,3.7022448259592053,1.3894428636878728,9.40938324958086,-0.29903537034988403,-0.43088456988334656,-0.21314947307109833
1697447120.1071496,3.416784315705299,1.1075730516761542,9.518899545967578,-0.29903537034988403,-0.44579827785491943,-0.19397471845149994
1697447120.1121655,3.2848261553049087,0.8975172045081854,9.289992533028126,-0.2958395481109619,-0.4649730324745178,-0.1822568029165268
1697447120.1171484,3.510142470002174,0.8768706896156072,9.174192514717578,-0.2819911241531372,-0.5001267790794373,-0.18545259535312653
1697447120.1221683,3.555026198029518,0.8660985948890447,9.218178568184376,-0.2766647934913635,-0.5161057710647583,-0.1822568029165268
1697447120.12715,3.6026029497385026,0.8149311449378729,8.998248300850392,-0.2692079544067383,-0.5246278643608093,-0.19503998756408691
1697447120.1321716,3.670826216340065,0.8625078966468572,9.075448313057422,-0.272403746843338,-0.521432101726532,-0.2195410579442978
1697447120.1371505,3.6950634294748306,0.7655590441077947,8.969522714912891,-0.2734690010547638,-0.5086489319801331,-0.22593265771865845
1697447120.1421678,3.4966773515939713,0.6300101854652166,8.833076181709766,-0.2553595006465912,-0.5075836181640625,-0.23445476591587067
1697447120.1471517,3.5891378313302993,0.6021822740882635,8.651745920479298,-0.2542942464351654,-0.4926699101924896,-0.2610863745212555
1697447120.152169,3.5882401567697526,0.6003869249671697,8.770238962471485,-0.236184760928154,-0.47669094800949097,-0.29091379046440125
1697447120.1571455,3.498472700715065,0.5160055162757635,8.771136637032031,-0.22446686029434204,-0.4756256639957428,-0.31861066818237305
1697447120.1621659,3.504756422638893,0.27453107775188984,8.615838938057422,-0.2170100063085556,-0.4756256639957428,-0.3569601774215698
1697447120.1671517,3.656463423371315,0.3795589830726385,8.758569193184375,-0.19570471346378326,-0.48308253288269043,-0.39744022488594055
1697447120.1721675,3.7031425005197525,0.48189388297498226,8.94079712897539,-0.17759521305561066,-0.4937351644039154,-0.4315286874771118
1697447120.17715,3.791114607453346,0.3858427049964666,8.835769205391406,-0.17333416640758514,-0.4990614950656891,-0.4560297727584839
1697447120.182166,4.009249525666236,0.483689232096076,8.727150583565235,-0.1701383739709854,-0.4990614950656891,-0.49011823534965515
1697447120.1871493,4.072086744904518,0.6120566942542791,8.758569193184375,-0.15842045843601227,-0.4926699101924896,-0.5092930197715759
1697447120.1921654,3.9975797563791273,0.5474241258949041,8.781011057198047,-0.16055098176002502,-0.4948004484176636,-0.5231414437294006
1697447120.197149,4.139412336945534,0.6048752977699041,8.63379242926836,-0.14989835023880005,-0.4852130711078644,-0.5327288508415222
1697447120.2021704,4.292017012238502,0.842759056314826,8.630201731026172,-0.1562899351119995,-0.46923407912254333,-0.5476425290107727
1697447120.20715,4.225589094758034,0.8005683519691229,8.707401743233204,-0.16694258153438568,-0.45538565516471863,-0.5487077832221985
1697447120.212169,4.194170485138893,0.7314474108070135,8.541331949532031,-0.17759521305561066,-0.43621090054512024,-0.55083829164505
1697447120.2171788,4.318049574494362,0.8625078966468572,8.454257517158984,-0.18824785947799683,-0.41277506947517395,-0.5540341138839722
1697447120.2221391,4.336003065705299,0.921754417642951,8.592499399483204,-0.20422683656215668,-0.3872087299823761,-0.555099368095398
1697447120.2271767,4.263291426301002,0.8014660265296697,8.398601694405079,-0.21807527542114258,-0.36164239048957825,-0.5529688596725464
1697447120.2321372,4.220203047394753,0.7485032274574042,8.135583048164845,-0.23725003004074097,-0.3307497203350067,-0.5582951903343201
1697447120.2371774,4.302789106965065,0.8975172045081854,8.399499368965625,-0.24151109158992767,-0.2892043888568878,-0.5561646223068237
1697447120.242143,4.159161177277565,0.8589171984046697,8.390522623360157,-0.25216370820999146,-0.25618118047714233,-0.5465772747993469
1697447120.2471745,4.198658857941627,0.7763311388343572,8.210090036690234,-0.26707741618156433,-0.22422325611114502,-0.5519036054611206
1697447120.2521386,4.262393751740455,0.9172660448402166,8.323197031319141,-0.2692079544067383,-0.18587373197078705,-0.5391204357147217
1697447120.2571757,4.230077467560768,0.8741776659339666,8.420145883858204,-0.27986058592796326,-0.15711160004138947,-0.5348593592643738
1697447120.2621357,4.170830946564674,0.6327032091468573,8.25766678839922,-0.28412166237831116,-0.13154524564743042,-0.5284677743911743
1697447120.267174,4.29830073416233,0.7619683458656072,8.184057474434375,-0.27986058592796326,-0.10597889870405197,-0.5210109353065491
1697447120.272141,4.167240248322487,0.9486846544593572,8.400397043526173,-0.2819911241531372,-0.07828202098608017,-0.5039666891098022
1697447120.277174,4.058621626496315,0.7727404405921697,8.440792398750782,-0.2915785014629364,-0.06230306252837181,-0.4922487735748291
1697447120.2821336,4.03438441336155,0.7529916002601384,8.310629587471485,-0.30755746364593506,-0.04632409289479256,-0.48905298113822937
1697447120.2871788,4.040668135285378,0.9199590685218573,8.301652841866016,-0.30755746364593506,-0.03141038864850998,-0.48159611225128174
1697447120.2921395,3.9616727739572526,0.7906939318031072,8.348331919014454,-0.320340633392334,-0.025018803775310516,-0.4688129425048828
1697447120.297177,4.0047611528635025,0.699131126627326,8.21996445685625,-0.32247117161750793,-0.015431422740221024,-0.47200873494148254
1697447120.3021388,4.160058851838111,0.9199590685218573,8.156229563057423,-0.3373848795890808,0.0005475444486364722,-0.46668243408203125
1697447120.3071795,3.923072767853737,1.2646660997718573,7.861792307198048,-0.32140591740608215,0.020787568762898445,-0.46135610342025757
1697447120.3121374,4.580170546174049,1.3858521654456852,8.103266763985157,-0.27986058592796326,0.03996232897043228,-0.44324660301208496
1697447120.3171718,4.186091414093971,1.1336056139320134,8.522480783760548,-0.27027320861816406,0.06552868336439133,-0.41128867864608765
1697447120.3221414,3.8521564775705337,1.007033500894904,8.565569162666797,-0.2915785014629364,0.06872447580099106,-0.39744022488594055
1697447120.327176,3.943719282746315,0.8310892870277166,8.491062174141407,-0.28838270902633667,0.060202356427907944,-0.3995707631111145
1697447120.3321385,3.9984774309396744,0.5833311083167791,8.334866800606251,-0.26068583130836487,0.04635391756892204,-0.39211392402648926
1697447120.337182,4.0281006914377215,0.8176241686195135,8.764852915108204,-0.2500331997871399,0.04102759435772896,-0.39211392402648926
1697447120.3421402,3.8674169450998304,0.9208567430824041,8.983885507881642,-0.2734690010547638,0.01865703985095024,-0.3825265169143677
1697447120.3471568,3.8306122881174085,0.8032613756507635,8.94708085089922,-0.28412166237831116,0.0005475444486364722,-0.3867875933647156
1697447120.352166,3.8351006609201432,0.8167264940589666,8.816020365059375,-0.30329641699790955,-0.014366159215569496,-0.38785284757614136
1697447120.357151,3.700449476838112,0.8490427782386541,8.881550607979298,-0.3182101249694824,-0.028214596211910248,-0.3995707631111145
1697447120.3621626,3.5810587602853774,0.5824334337562322,8.829485483467579,-0.33951541781425476,-0.043128300458192825,-0.41661497950553894
1697447120.3671508,3.6636448198556897,0.6434753038734198,8.664313364326954,-0.34697225689888,-0.05910726636648178,-0.43046343326568604
1697447120.372166,3.6537703996896744,0.9711265184730291,8.76575058966875,-0.36721229553222656,-0.07828202098608017,-0.42513710260391235
1697447120.3771458,3.52001689016819,0.8301916124671698,8.792680826485157,-0.3991702198982239,-0.09958731383085251,-0.43259397149086
1697447120.3821712,3.6376122575998306,0.5967962267249822,8.400397043526173,-0.40982285141944885,-0.1187620759010315,-0.43365922570228577
1697447120.387149,3.6474866777658463,0.7224706652015448,8.386931925117969,-0.42367130517959595,-0.13580630719661713,-0.44431185722351074
1697447120.3921683,3.641202955842018,0.8678939440101385,8.572750559151173,-0.4396502673625946,-0.1560463309288025,-0.44857293367385864
1697447120.397148,3.756105299592018,0.7233683397620916,8.445280771553517,-0.4630860984325409,-0.1698947697877884,-0.45283398032188416
1697447120.4021695,3.848565779328346,0.814033470377326,8.193034220039845,-0.4779997766017914,-0.17948214709758759,-0.45709505677223206
1697447120.4071498,3.8090680986642838,0.9540707018226385,8.348331919014454,-0.4939787685871124,-0.1784168928861618,-0.4507034718990326
1697447120.4121675,3.8386913591623304,0.7871032335609197,8.324992380440236,-0.5088924765586853,-0.17735162377357483,-0.45816031098365784
1697447120.4171467,3.9679564958810807,0.6578380968421698,7.977592325508594,-0.5120882987976074,-0.1741558313369751,-0.46242135763168335
1697447120.4221644,4.136719313263893,0.8616102220863103,7.782796945869922,-0.5216756463050842,-0.16137264668941498,-0.45816031098365784
1697447120.4271486,3.9194820696115493,0.9235497667640448,8.13378769904375,-0.5270019769668579,-0.14965474605560303,-0.4517687261104584
1697447120.4321706,3.9975797563791273,0.7431171800941229,7.900392313301563,-0.5440462231636047,-0.11343575268983841,-0.4357897639274597
1697447120.4371471,3.92217509329319,0.6515543749183417,7.54222016364336,-0.5440462231636047,-0.09106519818305969,-0.42513710260391235
1697447120.4421659,4.052337904572487,0.7224706652015448,7.736117868721485,-0.5504378080368042,-0.05271568149328232,-0.41554972529411316
1697447120.4471543,3.9526960283517836,0.426238060221076,7.691234140694141,-0.5568293929100037,-0.02395353838801384,-0.40170130133628845
1697447120.4521687,4.052337904572487,0.41456829093396663,7.708289957344531,-0.5408504009246826,-0.0005177200073376298,-0.39211392402648926
1697447120.4571786,4.035282087922096,0.5671729662269354,7.968615579903125,-0.5536335706710815,0.014395982027053833,-0.3867875933647156
1697447120.462135,4.0281006914377215,0.2763264268729836,8.082620249092578,-0.5568293929100037,0.019722305238246918,-0.3846570551395416
1697447120.467184,3.9886030107736588,0.0133077806327492,8.006317911446095,-0.5589599013328552,0.017591776326298714,-0.37506967782974243
1697447120.4721344,3.9105053240060803,0.05549848497845232,7.9811830237507815,-0.5451114773750305,0.020787568762898445,-0.3772002160549164
1697447120.4771774,3.748923903107643,-0.030678272834047674,8.060178385078906,-0.5365893840789795,0.009069659747183323,-0.38359180092811584
1697447120.4821372,3.7587983232736586,-0.29998064099811017,7.77202485114336,-0.5088924765586853,-0.005844042170792818,-0.3910486400127411
1697447120.4871783,3.7668773943185805,-0.1626364332344383,7.619420175850391,-0.47480398416519165,-0.014366159215569496,-0.4080928862094879
1697447120.492135,3.728277388215065,0.030363597283139823,7.835759744942188,-0.4492376446723938,-0.022888274863362312,-0.4176802635192871
1697447120.4971766,3.7587983232736586,-0.0118271070625633,7.795364389717578,-0.421540766954422,-0.02714933268725872,-0.43472447991371155
1697447120.5021396,3.885370436310768,-0.021701527228578925,7.5009271338582035,-0.37786492705345154,-0.029279861599206924,-0.43365922570228577
1697447120.507185,3.934742537140846,0.0958938402030617,7.667894602119922,-0.3427112102508545,-0.02395353838801384,-0.43898555636405945
1697447120.5121412,4.099016981720924,-0.025292225470766424,7.600569010078907,-0.3086227476596832,-0.014366159215569496,-0.4379202723503113
1697447120.517179,4.18339839041233,0.16501478136517106,7.67148530036211,-0.27453428506851196,-0.005844042170792818,-0.4357897639274597
1697447120.5221384,4.25251933157444,0.3427543260902166,7.969513254463672,-0.24257634580135345,0.0016128089046105742,-0.42087605595588684
1697447120.527183,4.283937941193581,0.11294965685345232,8.118527231514454,-0.22553211450576782,0.008004395291209221,-0.40276655554771423
1697447120.5321443,4.242644911408425,-0.02439455091021955,8.030555124580859,-0.21487948298454285,0.002678073476999998,-0.39637497067451477
1697447120.5371785,4.344082136750221,0.14795896471478046,8.187648172676562,-0.19996577501296997,0.0005475444486364722,-0.3846570551395416
1697447120.542135,4.383579817414284,0.1102566331718117,8.35192261725664,-0.20103104412555695,-0.005844042170792818,-0.3729391396045685
1697447120.5471826,4.4966868120431895,0.008819407830014824,8.193931894600391,-0.21168369054794312,-0.005844042170792818,-0.3622865080833435
1697447120.552139,4.534389143586159,0.22426130236126482,8.154434213936328,-0.2212710678577423,-0.002648248802870512,-0.34630754590034485
1697447120.5571797,4.486812391877174,0.19014966906048356,8.307038889229297,-0.24364161491394043,0.012265453115105629,-0.3250022530555725
1697447120.5621393,4.43923564016819,-0.048631764044985176,8.193931894600391,-0.2649468779563904,0.01865703985095024,-0.3026317059993744
1697447120.5671754,4.472449598908424,0.0007403367850929498,8.025169077217578,-0.2777300775051117,0.042092859745025635,-0.2887832522392273
1697447120.5721352,4.351263533234596,-0.001952686896547675,8.22894120246172,-0.2969048321247101,0.06978973746299744,-0.2781306207180023
1697447120.5771773,4.24084956228733,-0.25599458753131327,8.403090067207813,-0.32140591740608215,0.09322556108236313,-0.26321691274642944
1697447120.582142,4.274961195588112,-0.334989967122674,8.268438883125782,-0.3437764644622803,0.11559611558914185,-0.2610863745212555
1697447120.587178,4.260598402619362,-0.33229694344103333,8.407578440010548,-0.3608207106590271,0.13690140843391418,-0.2664127051830292
1697447120.5921671,4.175319319367409,-0.47861789681017397,8.65354126960039,-0.3895828425884247,0.1550108939409256,-0.2664127051830292
1697447120.59715,4.145696058869362,-0.7847249219566583,8.48747147589922,-0.4130186438560486,0.16566354036331177,-0.2791958749294281
1697447120.60217,4.114277449250221,-0.7981900403648615,8.411169138252735,-0.42473655939102173,0.1827077716588974,-0.3068927526473999
1697447120.6071537,4.067598372101783,-0.7802365491539239,8.600578470528125,-0.4300628900527954,0.19762147963047028,-0.3175453841686249
1697447120.612165,3.977830916047096,-1.010041236653924,8.511708689033984,-0.44284605979919434,0.2104046493768692,-0.34204646944999695
1697447120.6171496,4.060416975617408,-1.0082458875328302,8.377057504951953,-0.4449765980243683,0.23597100377082825,-0.36867809295654297
1697447120.6221662,4.05413325369358,-0.8942412183433771,8.526071482002735,-0.44178080558776855,0.2615373432636261,-0.37933072447776794
1697447120.62715,3.937435560822487,-1.0989110181480646,8.486573801338672,-0.4353892207145691,0.2796468436717987,-0.3985055088996887
1697447120.6321685,3.992193709015846,-1.2892180249840022,8.152638864815234,-0.42260605096817017,0.30947425961494446,-0.4144844710826874
1697447120.6371498,4.076575117707252,-1.1213528821617365,8.192136545479297,-0.3853217661380768,0.3350405991077423,-0.41981080174446106
1697447120.6421654,4.011942549347878,-1.1168645093590022,8.416555185616016,-0.35975542664527893,0.36060693860054016,-0.42087605595588684
1697447120.6471508,3.9239704424142836,-1.3385901258140802,8.307038889229297,-0.33099329471588135,0.3829774856567383,-0.4230065941810608
1697447120.652167,3.906914625763893,-1.2829343030601739,8.170592356026173,-0.29477429389953613,0.4053480625152588,-0.41981080174446106
1697447120.6571505,3.7884215837717057,-1.254208717122674,8.382443552315236,-0.25216370820999146,0.42558807134628296,-0.4134191870689392
1697447120.6621687,3.660951796174049,-1.4283575818687677,8.548513346016406,-0.2223363220691681,0.43411019444465637,-0.40596234798431396
1697447120.6671515,3.6528727251291273,-1.3942459485679863,8.534150553047656,-0.19037839770317078,0.4468933641910553,-0.4091581404209137
1697447120.6721723,3.689677382111549,-1.2577994153648615,8.71099244147539,-0.18611733615398407,0.47245970368385315,-0.4048970937728882
1697447120.6771476,3.5379703813791274,-1.4588785169273615,8.954262247383594,-0.1850520670413971,0.487373411655426,-0.4048970937728882
1697447120.6821637,3.3575377947092053,-1.6572645948082207,8.9524668982625,-0.19037839770317078,0.49909132719039917,-0.4230065941810608
1697447120.6871476,3.4060122209787367,-1.5746785352379082,9.162522745430469,-0.1946394443511963,0.5097439289093018,-0.4368550181388855
1697447120.6921709,3.3225284868478773,-1.606097144857049,9.545829782783985,-0.22766265273094177,0.5214618444442749,-0.4602908492088318
1697447120.6971853,3.208523817658424,-1.8888646314293145,9.55301117926836,-0.2596205770969391,0.5235923528671265,-0.49864035844802856
1697447120.702141,3.230965681672096,-1.9903018567711115,9.467732096016407,-0.28412166237831116,0.517200767993927,-0.5274025201797485
1697447120.7071805,3.173514509797096,-1.9032274243980645,9.755885629951953,-0.2958395481109619,0.5022870898246765,-0.571078360080719
1697447120.7121375,3.0990075212717056,-2.0683995435386895,9.786406565010548,-0.3107532560825348,0.4788512885570526,-0.6115583777427673
1697447120.7171743,3.139402876496315,-2.1913809583336112,9.48658326178789,-0.3086227476596832,0.4458281099796295,-0.6520384550094604
1697447120.7221413,3.210319166779518,-2.0351855847984552,9.497355356514454,-0.2969048321247101,0.4191964864730835,-0.6925184726715088
1697447120.727175,3.0424540239572524,-2.038776283040643,9.626620493233204,-0.27559953927993774,0.39256489276885986,-0.7223458886146545
1697447120.73214,3.1268354326486585,-2.1617576978355646,9.395918131172657,-0.23725003004074097,0.3595416843891144,-0.7521733045578003
1697447120.7371812,3.2282726579904555,-1.914897193685174,9.204713449776172,-0.20103104412555695,0.34782376885414124,-0.7756091356277466
1697447120.742137,3.1376075273752213,-1.713818092122674,9.418359995186329,-0.1701383739709854,0.35208481550216675,-0.7915880680084229
1697447120.7471738,3.039761000275612,-1.806278571859002,9.561090250313281,-0.1435067504644394,0.3552806079387665,-0.8096975684165955
1697447120.7521431,3.065793562531471,-1.7174087903648614,9.493764658272266,-0.11367934197187424,0.36486801505088806,-0.832068145275116
1697447120.7571752,3.1483796221017837,-1.5154320142418145,9.747806558907032,-0.10196143388748169,0.3765859007835388,-0.8373944759368896
1697447120.7621398,3.0900307756662366,-1.542362251058221,10.071867659687996,-0.10515722632408142,0.37978169322013855,-0.8618955612182617
1697447120.7671785,3.07477030813694,-1.5881436536461115,9.96145368874073,-0.11261408030986786,0.38830381631851196,-0.8832008242607117
1697447120.7721422,3.0900307756662366,-1.4077110669761896,10.029676955342293,-0.1243319883942604,0.386173278093338,-0.8949187397956848
1697447120.77718,3.0936214739084242,-1.369111060872674,10.298081648945809,-0.1424414962530136,0.377651184797287,-0.9077019095420837
1697447120.7821355,3.1061889177560804,-1.4525947950035334,10.115853713154792,-0.15842045843601227,0.36167222261428833,-0.9172893166542053
1697447120.7871788,3.1169610124826432,-1.369111060872674,9.99287229835987,-0.16055098176002502,0.3584764003753662,-0.9300724864006042
1697447120.7921371,3.0945191484689714,-1.189576148763299,10.283718855977058,-0.1701383739709854,0.3456932306289673,-0.9290072321891785
1697447120.797177,2.9553795915842054,-1.25241336800158,10.288207228779793,-0.18611733615398407,0.32438793778419495,-0.9268766641616821
1697447120.8021383,2.9248586565256116,-1.3565436170250178,9.928239730000495,-0.1701383739709854,0.30947425961494446,-0.9279419183731079
1697447120.807181,2.9230633074045183,-1.1330226514488457,10.026983931660652,-0.15415939688682556,0.30095213651657104,-0.9247461557388306
1697447120.8121355,2.8216260820627213,-0.9597714612632989,10.173304885029793,-0.1477678120136261,0.28177738189697266,-0.9215503334999084
1697447120.817179,2.723779554963112,-1.0540272901207208,9.94439787209034,-0.12326672673225403,0.26792892813682556,-0.9204850792884827
1697447120.8221397,2.7686632829904556,-0.9103993604332208,9.842960646748542,-0.10515722632408142,0.2572762966156006,-0.9119629859924316
1697447120.8271523,2.7165981584787366,-0.8035760877281427,10.045835097432136,-0.08704773336648941,0.24023205041885376,-0.9034408926963806
1697447120.8321645,2.645681868195534,-0.9795203015953302,10.038653700947762,-0.0646771788597107,0.21360044181346893,-0.8981145620346069
1697447120.83715,2.71570048391819,-0.8888551709800958,9.99287229835987,-0.05615505948662758,0.1912298947572708,-0.8895924091339111
1697447120.842167,2.7085190874338148,-0.6527667615562677,10.219086287617683,-0.06041611731052399,0.17525091767311096,-0.8863966464996338
1697447120.8471472,2.607979536652565,-0.7066272351890802,10.35194212257862,-0.07426455616950989,0.15714143216609955,-0.8789398074150085
1697447120.8521688,2.5451423174142835,-0.8134505078941583,10.127523482441902,-0.08598246425390244,0.13903193175792694,-0.8768092393875122
1697447120.8571475,2.5532213884592054,-0.6446876905113459,10.169714186787605,-0.10409196466207504,0.12624874711036682,-0.8810703158378601
1697447120.8621738,2.5146213823556898,-0.5261946485191583,10.29179792702198,-0.12539725005626678,0.11879190802574158,-0.8821355700492859
1697447120.8671472,2.4957702165842055,-0.643790015950799,10.021597884297371,-0.14137622714042664,0.11346558481454849,-0.8874619007110596
1697447120.87217,2.544244642853737,-0.6069853589683771,9.83218855202198,-0.1562899351119995,0.12305296212434769,-0.8874619007110596
1697447120.8771493,2.493077192902565,-0.5459434888511896,10.05032347023487,-0.1701383739709854,0.12305296212434769,-0.8821355700492859
1697447120.8821688,2.403309590741992,-0.6752086255699395,9.919262984395028,-0.17439942061901093,0.12092243134975433,-0.8736134767532349
1697447120.887152,2.463453932404518,-0.7739528272300958,9.557499552071095,-0.16800783574581146,0.12518349289894104,-0.8725482225418091
